"rt","stimulus","response","phase","trial_type","trial_index","time_elapsed","internal_node_id","prolific_subject_id","study_id","session_id","exit_reason","exit_stage","exit_progress","game_data","emergency_text","keystrokes","mouse_events"
"11975","Welcome!<br><br>In this study, you will play three short video games that were generated by Artificial Intelligence (AI) and complete a short survey after each game.<br><br>Please make sure you are in a quiet environment where you can focus for the duration of the study. Some games may use sound, so please ensure that your device's volume is not muted.<br><br>Press any key to begin."," ","welcome-message","html-keyboard-response","0","12054","0.0-0.0","5d164f9b1a4be700176367bd","6987c292780adf01bb926159","69ade881686065c46a87720d","","","","","","",""
"16449","","{""commitment-check"":[""yes""]}","commitment-check","survey","1","28568","0.0-1.0","5d164f9b1a4be700176367bd","6987c292780adf01bb926159","69ade881686065c46a87720d","","","","","","",""
"9420","Press any key to proceed to the first video game. Should you encounter a game-breaking bug, please report the issue in the Menu tab to the right of the screen."," ","pre-game-one-message","html-keyboard-response","2","37989","0.0-2.0","5d164f9b1a4be700176367bd","6987c292780adf01bb926159","69ade881686065c46a87720d","","","","","","",""
"100237","","","game-chat-3-orbit","plugin-game-iframe","3","138260","0.0-3.0","5d164f9b1a4be700176367bd","6987c292780adf01bb926159","69ade881686065c46a87720d","game-complete","complete","{""stage"":""complete"",""detail"":{""state"":""complete"",""movementIndex"":2,""launchesUsed"":29,""phraseProgress"":8}}","{""result"":""win"",""accuracy"":43,""totalLaunches"":81,""onBeatLaunches"":35,""longestOrbit"":30.677400000000006}","null","[{""key"":"" "",""event"":""keyup"",""t"":106},{""key"":""Enter"",""event"":""keydown"",""t"":18921},{""key"":""Enter"",""event"":""keyup"",""t"":19054},{""key"":""n"",""event"":""keydown"",""t"":30859},{""key"":""n"",""event"":""keyup"",""t"":30932},{""key"":""n"",""event"":""keydown"",""t"":69767},{""key"":""n"",""event"":""keyup"",""t"":69873},{""key"":""n"",""event"":""keydown"",""t"":90737},{""key"":""n"",""event"":""keyup"",""t"":90816},{""key"":""Enter"",""event"":""keydown"",""t"":100220}]","[]"
"361184","","{""creativity-rating"":4,""creativity-free-response"":""It was creative that you have to play in rythms with the beats of each circles."",""originality-rating"":4,""originality-free-response"":""It was original that you had to play in rythms in a 2D games with circles."",""effectiveness-rating"":4,""effectiveness-free-response"":""The game was enjoyable. It was like playing music."",""authenticity-rating"":4,""attention-check"":3,""intentionality-rating"":4,""authenticity-intentionality-free-response"":""I think the developer really made an effort to make an original and authentic game not just a copy of another game.""}","evaluation-chat-3-orbit","survey","4","499520","0.0-4.0","5d164f9b1a4be700176367bd","6987c292780adf01bb926159","69ade881686065c46a87720d","","","","","","",""
"39995","","{""concept-creativity-rating"":5,""concept-implementation-rating"":5,""question1"":null}","concept-chat-3-orbit","survey","5","539552","0.0-5.0","5d164f9b1a4be700176367bd","6987c292780adf01bb926159","69ade881686065c46a87720d","","","","","","",""
"3410","You have completed your evaluation of the first video game.<br><br>Press any key to proceed to the second game.","enter","pre-game-two-message","html-keyboard-response","6","542964","0.0-6.0","5d164f9b1a4be700176367bd","6987c292780adf01bb926159","69ade881686065c46a87720d","","","","","","",""
"86360","","","game-claude-2-moth","plugin-game-iframe","7","629345","0.0-7.0","5d164f9b1a4be700176367bd","6987c292780adf01bb926159","69ade881686065c46a87720d","game-complete","end:mixed","{""stage"":""end:mixed"",""detail"":{""endType"":""mixed"",""dependency"":0.5132329300000005,""gameTime"":75.1577899999994}}","{""result"":""win"",""endType"":""mixed"",""dependency"":0.5132329300000005,""mothsFollowing"":0}","null","[{""key"":""Enter"",""event"":""keyup"",""t"":83},{""key"":"" "",""event"":""keydown"",""t"":3553},{""key"":"" "",""event"":""keyup"",""t"":3643},{""key"":"" "",""event"":""keydown"",""t"":10239},{""key"":"" "",""event"":""keyup"",""t"":10514},{""key"":"" "",""event"":""keydown"",""t"":11143},{""key"":"" "",""event"":""keydown"",""t"":11661},{""key"":"" "",""event"":""keydown"",""t"":11702},{""key"":"" "",""event"":""keydown"",""t"":11746},{""key"":"" "",""event"":""keydown"",""t"":11789},{""key"":"" "",""event"":""keydown"",""t"":11833},{""key"":"" "",""event"":""keydown"",""t"":11833},{""key"":"" "",""event"":""keydown"",""t"":11878},{""key"":"" "",""event"":""keydown"",""t"":11923},{""key"":"" "",""event"":""keydown"",""t"":11969},{""key"":"" "",""event"":""keydown"",""t"":12010},{""key"":"" "",""event"":""keydown"",""t"":12059},{""key"":"" "",""event"":""keydown"",""t"":12059},{""key"":"" "",""event"":""keydown"",""t"":12103},{""key"":"" "",""event"":""keydown"",""t"":12146},{""key"":"" "",""event"":""keydown"",""t"":12191},{""key"":"" "",""event"":""keydown"",""t"":12236},{""key"":"" "",""event"":""keydown"",""t"":12281},{""key"":"" "",""event"":""keydown"",""t"":12282},{""key"":"" "",""event"":""keydown"",""t"":12326},{""key"":"" "",""event"":""keyup"",""t"":12368},{""key"":"" "",""event"":""keydown"",""t"":12671},{""key"":"" "",""event"":""keyup"",""t"":12892},{""key"":"" "",""event"":""keydown"",""t"":15632},{""key"":"" "",""event"":""keyup"",""t"":15852},{""key"":"" "",""event"":""keydown"",""t"":16401},{""key"":"" "",""event"":""keyup"",""t"":16731},{""key"":"" "",""event"":""keydown"",""t"":17188},{""key"":"" "",""event"":""keyup"",""t"":17358},{""key"":"" "",""event"":""keydown"",""t"":18137},{""key"":"" "",""event"":""keydown"",""t"":18678},{""key"":"" "",""event"":""keydown"",""t"":18679},{""key"":"" "",""event"":""keydown"",""t"":18723},{""key"":"" "",""event"":""keydown"",""t"":18768},{""key"":"" "",""event"":""keyup"",""t"":18868},{""key"":"" "",""event"":""keydown"",""t"":19647},{""key"":"" "",""event"":""keyup"",""t"":19773},{""key"":"" "",""event"":""keydown"",""t"":19980},{""key"":"" "",""event"":""keyup"",""t"":20112},{""key"":"" "",""event"":""keydown"",""t"":20748},{""key"":"" "",""event"":""keyup"",""t"":21197},{""key"":"" "",""event"":""keydown"",""t"":21478},{""key"":"" "",""event"":""keyup"",""t"":21647},{""key"":"" "",""event"":""keydown"",""t"":21949},{""key"":"" "",""event"":""keyup"",""t"":22212},{""key"":"" "",""event"":""keydown"",""t"":23322},{""key"":"" "",""event"":""keyup"",""t"":23538},{""key"":"" "",""event"":""keydown"",""t"":23731},{""key"":"" "",""event"":""keyup"",""t"":23902},{""key"":"" "",""event"":""keydown"",""t"":24722},{""key"":"" "",""event"":""keyup"",""t"":25025},{""key"":""ArrowRight"",""event"":""keydown"",""t"":30176},{""key"":""ArrowRight"",""event"":""keyup"",""t"":30267},{""key"":""ArrowRight"",""event"":""keydown"",""t"":30502},{""key"":""ArrowRight"",""event"":""keyup"",""t"":30637},{""key"":""ArrowRight"",""event"":""keydown"",""t"":30777},{""key"":""ArrowRight"",""event"":""keydown"",""t"":31305},{""key"":""ArrowRight"",""event"":""keydown"",""t"":31352},{""key"":""ArrowRight"",""event"":""keydown"",""t"":31352},{""key"":""ArrowRight"",""event"":""keydown"",""t"":31398},{""key"":""ArrowRight"",""event"":""keydown"",""t"":31443},{""key"":""ArrowRight"",""event"":""keyup"",""t"":31487},{""key"":""ArrowLeft"",""event"":""keydown"",""t"":31938},{""key"":""ArrowLeft"",""event"":""keydown"",""t"":32481},{""key"":""ArrowLeft"",""event"":""keydown"",""t"":32482},{""key"":""ArrowLeft"",""event"":""keydown"",""t"":32527},{""key"":""ArrowLeft"",""event"":""keyup"",""t"":32615},{""key"":""ArrowLeft"",""event"":""keydown"",""t"":34228},{""key"":""ArrowLeft"",""event"":""keyup"",""t"":34576},{""key"":""ArrowLeft"",""event"":""keydown"",""t"":34841},{""key"":""ArrowLeft"",""event"":""keyup"",""t"":34970},{""key"":"" "",""event"":""keydown"",""t"":35413},{""key"":"" "",""event"":""keydown"",""t"":35929},{""key"":"" "",""event"":""keydown"",""t"":35974},{""key"":"" "",""event"":""keydown"",""t"":35974},{""key"":"" "",""event"":""keydown"",""t"":36019},{""key"":"" "",""event"":""keydown"",""t"":36063},{""key"":"" "",""event"":""keydown"",""t"":36106},{""key"":"" "",""event"":""keydown"",""t"":36155},{""key"":"" "",""event"":""keydown"",""t"":36201},{""key"":"" "",""event"":""keydown"",""t"":36201},{""key"":"" "",""event"":""keydown"",""t"":36245},{""key"":"" "",""event"":""keydown"",""t"":36290},{""key"":"" "",""event"":""keydown"",""t"":36333},{""key"":"" "",""event"":""keydown"",""t"":36380},{""key"":"" "",""event"":""keydown"",""t"":36424},{""key"":"" "",""event"":""keydown"",""t"":36425},{""key"":"" "",""event"":""keydown"",""t"":36468},{""key"":"" "",""event"":""keydown"",""t"":36514},{""key"":"" "",""event"":""keydown"",""t"":36560},{""key"":"" "",""event"":""keydown"",""t"":36604},{""key"":"" "",""event"":""keydown"",""t"":36653},{""key"":"" "",""event"":""keydown"",""t"":36654},{""key"":"" "",""event"":""keydown"",""t"":36701},{""key"":"" "",""event"":""keydown"",""t"":36744},{""key"":"" "",""event"":""keydown"",""t"":36787},{""key"":"" "",""event"":""keydown"",""t"":36830},{""key"":"" "",""event"":""keydown"",""t"":36831},{""key"":"" "",""event"":""keydown"",""t"":36873},{""key"":"" "",""event"":""keydown"",""t"":36916},{""key"":"" "",""event"":""keydown"",""t"":36960},{""key"":"" "",""event"":""keydown"",""t"":37002},{""key"":"" "",""event"":""keyup"",""t"":37088},{""key"":""ArrowLeft"",""event"":""keydown"",""t"":38070},{""key"":""ArrowLeft"",""event"":""keyup"",""t"":38202},{""key"":""ArrowLeft"",""event"":""keydown"",""t"":38561},{""key"":""ArrowLeft"",""event"":""keydown"",""t"":39083},{""key"":""ArrowLeft"",""event"":""keydown"",""t"":39129},{""key"":""ArrowLeft"",""event"":""keydown"",""t"":39173},{""key"":""ArrowLeft"",""event"":""keydown"",""t"":39173},{""key"":""ArrowLeft"",""event"":""keyup"",""t"":39263},{""key"":""0"",""event"":""keydown"",""t"":39754},{""key"":""0"",""event"":""keyup"",""t"":39943},{""key"":""0"",""event"":""keydown"",""t"":40212},{""key"":""0"",""event"":""keyup"",""t"":40393},{""key"":""ArrowRight"",""event"":""keydown"",""t"":41288},{""key"":""ArrowRight"",""event"":""keyup"",""t"":41421},{""key"":""ArrowRight"",""event"":""keydown"",""t"":41699},{""key"":""ArrowRight"",""event"":""keydown"",""t"":42173},{""key"":""ArrowRight"",""event"":""keydown"",""t"":42216},{""key"":""ArrowRight"",""event"":""keydown"",""t"":42260},{""key"":""ArrowRight"",""event"":""keydown"",""t"":42303},{""key"":""ArrowRight"",""event"":""keydown"",""t"":42347},{""key"":""ArrowRight"",""event"":""keydown"",""t"":42347},{""key"":""ArrowRight"",""event"":""keydown"",""t"":42391},{""key"":""ArrowRight"",""event"":""keydown"",""t"":42434},{""key"":""ArrowRight"",""event"":""keydown"",""t"":42478},{""key"":""ArrowRight"",""event"":""keydown"",""t"":42523},{""key"":""ArrowRight"",""event"":""keyup"",""t"":42569},{""key"":"" "",""event"":""keydown"",""t"":45601},{""key"":"" "",""event"":""keydown"",""t"":46147},{""key"":"" "",""event"":""keydown"",""t"":46148},{""key"":"" "",""event"":""keydown"",""t"":46192},{""key"":"" "",""event"":""keydown"",""t"":46237},{""key"":"" "",""event"":""keydown"",""t"":46281},{""key"":"" "",""event"":""keydown"",""t"":46326},{""key"":"" "",""event"":""keydown"",""t"":46372},{""key"":"" "",""event"":""keydown"",""t"":46372},{""key"":"" "",""event"":""keydown"",""t"":46415},{""key"":"" "",""event"":""keydown"",""t"":46460},{""key"":"" "",""event"":""keydown"",""t"":46503},{""key"":"" "",""event"":""keydown"",""t"":46554},{""key"":"" "",""event"":""keydown"",""t"":46555},{""key"":"" "",""event"":""keydown"",""t"":46598},{""key"":"" "",""event"":""keydown"",""t"":46644},{""key"":"" "",""event"":""keydown"",""t"":46689},{""key"":"" "",""event"":""keydown"",""t"":46733},{""key"":"" "",""event"":""keydown"",""t"":46777},{""key"":"" "",""event"":""keydown"",""t"":46778},{""key"":"" "",""event"":""keydown"",""t"":46823},{""key"":"" "",""event"":""keydown"",""t"":46866},{""key"":"" "",""event"":""keyup"",""t"":46953},{""key"":""ArrowLeft"",""event"":""keydown"",""t"":48047},{""key"":""ArrowLeft"",""event"":""keydown"",""t"":48556},{""key"":""ArrowLeft"",""event"":""keydown"",""t"":48556},{""key"":""ArrowLeft"",""event"":""keydown"",""t"":48601},{""key"":""ArrowLeft"",""event"":""keydown"",""t"":48647},{""key"":""ArrowLeft"",""event"":""keydown"",""t"":48694},{""key"":""ArrowLeft"",""event"":""keydown"",""t"":48738},{""key"":""ArrowLeft"",""event"":""keyup"",""t"":48785},{""key"":""0"",""event"":""keydown"",""t"":49222},{""key"":""0"",""event"":""keydown"",""t"":49750},{""key"":""0"",""event"":""keydown"",""t"":49794},{""key"":""0"",""event"":""keydown"",""t"":49795},{""key"":""0"",""event"":""keydown"",""t"":49838},{""key"":""0"",""event"":""keydown"",""t"":49881},{""key"":""0"",""event"":""keydown"",""t"":49926},{""key"":""0"",""event"":""keydown"",""t"":49968},{""key"":""0"",""event"":""keydown"",""t"":50011},{""key"":""0"",""event"":""keydown"",""t"":50057},{""key"":""0"",""event"":""keyup"",""t"":50101},{""key"":"" "",""event"":""keydown"",""t"":51351},{""key"":"" "",""event"":""keydown"",""t"":51852},{""key"":"" "",""event"":""keydown"",""t"":51898},{""key"":"" "",""event"":""keydown"",""t"":51945},{""key"":"" "",""event"":""keydown"",""t"":51992},{""key"":"" "",""event"":""keydown"",""t"":51992},{""key"":"" "",""event"":""keydown"",""t"":52038},{""key"":"" "",""event"":""keydown"",""t"":52084},{""key"":"" "",""event"":""keydown"",""t"":52131},{""key"":"" "",""event"":""keydown"",""t"":52182},{""key"":"" "",""event"":""keydown"",""t"":52182},{""key"":"" "",""event"":""keydown"",""t"":52229},{""key"":"" "",""event"":""keydown"",""t"":52276},{""key"":"" "",""event"":""keydown"",""t"":52324},{""key"":"" "",""event"":""keydown"",""t"":52324},{""key"":"" "",""event"":""keydown"",""t"":52368},{""key"":"" "",""event"":""keydown"",""t"":52416},{""key"":"" "",""event"":""keydown"",""t"":52462},{""key"":"" "",""event"":""keydown"",""t"":52510},{""key"":"" "",""event"":""keydown"",""t"":52510},{""key"":"" "",""event"":""keydown"",""t"":52558},{""key"":"" "",""event"":""keydown"",""t"":52604},{""key"":"" "",""event"":""keydown"",""t"":52651},{""key"":"" "",""event"":""keydown"",""t"":52700},{""key"":"" "",""event"":""keydown"",""t"":52700},{""key"":"" "",""event"":""keydown"",""t"":52748},{""key"":"" "",""event"":""keydown"",""t"":52796},{""key"":"" "",""event"":""keydown"",""t"":52844},{""key"":"" "",""event"":""keydown"",""t"":52845},{""key"":"" "",""event"":""keydown"",""t"":52893},{""key"":"" "",""event"":""keydown"",""t"":52939},{""key"":"" "",""event"":""keydown"",""t"":52987},{""key"":"" "",""event"":""keydown"",""t"":53035},{""key"":"" "",""event"":""keydown"",""t"":53036},{""key"":"" "",""event"":""keydown"",""t"":53082},{""key"":"" "",""event"":""keydown"",""t"":53128},{""key"":"" "",""event"":""keydown"",""t"":53174},{""key"":"" "",""event"":""keydown"",""t"":53220},{""key"":"" "",""event"":""keydown"",""t"":53221},{""key"":"" "",""event"":""keyup"",""t"":53314},{""key"":""ArrowRight"",""event"":""keydown"",""t"":53733},{""key"":""ArrowRight"",""event"":""keyup"",""t"":53785},{""key"":""ArrowRight"",""event"":""keydown"",""t"":54245},{""key"":""ArrowRight"",""event"":""keyup"",""t"":54466},{""key"":""ArrowLeft"",""event"":""keydown"",""t"":55232},{""key"":""ArrowLeft"",""event"":""keyup"",""t"":55379},{""key"":""ArrowLeft"",""event"":""keydown"",""t"":55623},{""key"":""ArrowLeft"",""event"":""keydown"",""t"":56147},{""key"":""ArrowLeft"",""event"":""keydown"",""t"":56147},{""key"":""ArrowLeft"",""event"":""keydown"",""t"":56198},{""key"":""ArrowLeft"",""event"":""keydown"",""t"":56245},{""key"":""ArrowLeft"",""event"":""keyup"",""t"":56338},{""key"":"" "",""event"":""keydown"",""t"":58160},{""key"":"" "",""event"":""keydown"",""t"":58697},{""key"":"" "",""event"":""keydown"",""t"":58746},{""key"":"" "",""event"":""keydown"",""t"":58793},{""key"":"" "",""event"":""keydown"",""t"":58793},{""key"":"" "",""event"":""keydown"",""t"":58838},{""key"":"" "",""event"":""keydown"",""t"":58886},{""key"":"" "",""event"":""keyup"",""t"":58976},{""key"":""ArrowRight"",""event"":""keydown"",""t"":60336},{""key"":""ArrowRight"",""event"":""keyup"",""t"":60429},{""key"":""ArrowRight"",""event"":""keydown"",""t"":60849},{""key"":""ArrowRight"",""event"":""keyup"",""t"":61221},{""key"":""ArrowRight"",""event"":""keydown"",""t"":62317},{""key"":""ArrowRight"",""event"":""keyup"",""t"":62489},{""key"":""ArrowRight"",""event"":""keydown"",""t"":62669},{""key"":""ArrowRight"",""event"":""keyup"",""t"":62772},{""key"":""ArrowRight"",""event"":""keydown"",""t"":64091},{""key"":""ArrowRight"",""event"":""keydown"",""t"":64587},{""key"":""ArrowRight"",""event"":""keydown"",""t"":64633},{""key"":""ArrowRight"",""event"":""keydown"",""t"":64680},{""key"":""ArrowRight"",""event"":""keydown"",""t"":64680},{""key"":""ArrowRight"",""event"":""keydown"",""t"":64726},{""key"":""ArrowRight"",""event"":""keydown"",""t"":64774},{""key"":""ArrowRight"",""event"":""keydown"",""t"":64822},{""key"":""ArrowRight"",""event"":""keydown"",""t"":64823},{""key"":""ArrowRight"",""event"":""keyup"",""t"":64912},{""key"":"" "",""event"":""keydown"",""t"":65370},{""key"":"" "",""event"":""keyup"",""t"":65887},{""key"":""ArrowLeft"",""event"":""keydown"",""t"":68401},{""key"":""ArrowLeft"",""event"":""keyup"",""t"":68587},{""key"":""ArrowRight"",""event"":""keydown"",""t"":69863},{""key"":""ArrowRight"",""event"":""keyup"",""t"":70045},{""key"":""ArrowLeft"",""event"":""keydown"",""t"":70878},{""key"":""ArrowLeft"",""event"":""keyup"",""t"":71016},{""key"":"" "",""event"":""keydown"",""t"":71688},{""key"":"" "",""event"":""keydown"",""t"":72201},{""key"":"" "",""event"":""keydown"",""t"":72246},{""key"":"" "",""event"":""keydown"",""t"":72291},{""key"":"" "",""event"":""keydown"",""t"":72337},{""key"":"" "",""event"":""keydown"",""t"":72385},{""key"":"" "",""event"":""keydown"",""t"":72386},{""key"":"" "",""event"":""keydown"",""t"":72432},{""key"":"" "",""event"":""keyup"",""t"":72476},{""key"":"" "",""event"":""keydown"",""t"":74250},{""key"":"" "",""event"":""keyup"",""t"":74685},{""key"":"" "",""event"":""keydown"",""t"":75868},{""key"":"" "",""event"":""keyup"",""t"":76098},{""key"":"" "",""event"":""keydown"",""t"":76877},{""key"":"" "",""event"":""keyup"",""t"":77144},{""key"":"" "",""event"":""keydown"",""t"":78298},{""key"":"" "",""event"":""keyup"",""t"":78756},{""key"":"" "",""event"":""keydown"",""t"":85016},{""key"":"" "",""event"":""keyup"",""t"":85201},{""key"":""Enter"",""event"":""keydown"",""t"":86343}]","[]"
"349111","","{""creativity-rating"":1,""creativity-free-response"":""The game was not creative its a classic 2D vertical scrolling game."",""originality-rating"":1,""originality-free-response"":""Everything was unoriginal. It was just a classic vertical scrolling game."",""effectiveness-rating"":1,""effectiveness-free-response"":""The game was frustrating because you have almost no control you can just go slowly right or left and scroll up."",""authenticity-rating"":1,""attention-check"":3,""intentionality-rating"":5,""authenticity-intentionality-free-response"":""I think the game reflected the developer's lazy mindset.""}","evaluation-claude-2-moth","survey","8","978502","0.0-8.0","5d164f9b1a4be700176367bd","6987c292780adf01bb926159","69ade881686065c46a87720d","","","","","","",""
"56265","","{""concept-creativity-rating"":1,""concept-implementation-rating"":1,""question1"":null}","concept-claude-2-moth","survey","9","1034797","0.0-9.0","5d164f9b1a4be700176367bd","6987c292780adf01bb926159","69ade881686065c46a87720d","","","","","","",""
"3606","You have completed your evaluation of the second video game.<br><br>Press any key to proceed to the final game.","enter","pre-game-three-message","html-keyboard-response","10","1038405","0.0-10.0","5d164f9b1a4be700176367bd","6987c292780adf01bb926159","69ade881686065c46a87720d","","","","","","",""
"172062","","","game-chat-1-echo","plugin-game-iframe","11","1210486","0.0-11.0","5d164f9b1a4be700176367bd","6987c292780adf01bb926159","69ade881686065c46a87720d","emergency-exit","ended:lose","{""stage"":""ended:lose"",""detail"":{""gameState"":""LOSE"",""relicCollected"":false,""exitOpen"":false,""alertsCount"":1,""timeLeftMs"":291211.1599999942}}","null","Could not restart the game. They say to press R but pressing R does nothing i was stuck.","[{""key"":""Enter"",""event"":""keyup"",""t"":83},{""key"":""Enter"",""event"":""keydown"",""t"":6397},{""key"":""Enter"",""event"":""keyup"",""t"":6530},{""key"":""z"",""event"":""keydown"",""t"":13929},{""key"":""z"",""event"":""keyup"",""t"":14130},{""key"":""w"",""event"":""keydown"",""t"":14606},{""key"":""w"",""event"":""keyup"",""t"":14848},{""key"":""q"",""event"":""keydown"",""t"":15360},{""key"":""q"",""event"":""keyup"",""t"":15700},{""key"":""s"",""event"":""keydown"",""t"":16337},{""key"":""s"",""event"":""keyup"",""t"":16619},{""key"":""w"",""event"":""keydown"",""t"":17464},{""key"":""w"",""event"":""keyup"",""t"":17701},{""key"":""x"",""event"":""keydown"",""t"":17837},{""key"":""x"",""event"":""keyup"",""t"":18017},{""key"":""e"",""event"":""keydown"",""t"":19814},{""key"":""e"",""event"":""keyup"",""t"":20003},{""key"":""z"",""event"":""keydown"",""t"":20437},{""key"":""z"",""event"":""keyup"",""t"":20595},{""key"":""r"",""event"":""keydown"",""t"":21015},{""key"":""r"",""event"":""keyup"",""t"":21213},{""key"":""e"",""event"":""keydown"",""t"":21346},{""key"":""e"",""event"":""keyup"",""t"":21526},{""key"":""r"",""event"":""keydown"",""t"":23028},{""key"":""r"",""event"":""keyup"",""t"":23194},{""key"":""r"",""event"":""keydown"",""t"":23501},{""key"":""r"",""event"":""keyup"",""t"":23618},{""key"":""r"",""event"":""keydown"",""t"":23672},{""key"":""r"",""event"":""keyup"",""t"":23821},{""key"":""r"",""event"":""keydown"",""t"":24097},{""key"":""r"",""event"":""keyup"",""t"":24164},{""key"":""r"",""event"":""keydown"",""t"":24231},{""key"":""r"",""event"":""keyup"",""t"":24365},{""key"":""r"",""event"":""keydown"",""t"":24437},{""key"":""r"",""event"":""keyup"",""t"":24517},{""key"":""f"",""event"":""keydown"",""t"":24887},{""key"":""f"",""event"":""keyup"",""t"":25056},{""key"":""v"",""event"":""keydown"",""t"":25236},{""key"":""v"",""event"":""keyup"",""t"":25470},{""key"":""x"",""event"":""keydown"",""t"":27176},{""key"":""x"",""event"":""keyup"",""t"":27297},{""key"":""w"",""event"":""keydown"",""t"":27368},{""key"":""x"",""event"":""keydown"",""t"":27501},{""key"":""w"",""event"":""keyup"",""t"":27575},{""key"":""x"",""event"":""keyup"",""t"":27645},{""key"":""s"",""event"":""keydown"",""t"":27944},{""key"":""q"",""event"":""keydown"",""t"":27965},{""key"":""s"",""event"":""keyup"",""t"":28041},{""key"":""q"",""event"":""keyup"",""t"":28167},{""key"":""d"",""event"":""keydown"",""t"":28414},{""key"":""h"",""event"":""keydown"",""t"":28610},{""key"":""d"",""event"":""keyup"",""t"":28620},{""key"":""h"",""event"":""keyup"",""t"":28700},{""key"":""i"",""event"":""keydown"",""t"":29011},{""key"":""e"",""event"":""keydown"",""t"":29076},{""key"":""e"",""event"":""keyup"",""t"":29260},{""key"":""i"",""event"":""keyup"",""t"":29383},{""key"":""r"",""event"":""keydown"",""t"":29464},{""key"":""r"",""event"":""keyup"",""t"":29670},{""key"":""l"",""event"":""keydown"",""t"":30224},{""key"":""l"",""event"":""keyup"",""t"":30372},{""key"":""k"",""event"":""keydown"",""t"":30486},{""key"":""k"",""event"":""keyup"",""t"":30575},{""key"":""j"",""event"":""keydown"",""t"":30738},{""key"":""j"",""event"":""keyup"",""t"":30838},{""key"":""i"",""event"":""keydown"",""t"":30967},{""key"":""i"",""event"":""keyup"",""t"":31042},{""key"":""m"",""event"":""keydown"",""t"":31394},{""key"":""m"",""event"":""keyup"",""t"":31527},{""key"":""Enter"",""event"":""keydown"",""t"":31955},{""key"":""Enter"",""event"":""keyup"",""t"":32027},{""key"":""j"",""event"":""keydown"",""t"":33362},{""key"":""f"",""event"":""keydown"",""t"":33377},{""key"":""j"",""event"":""keyup"",""t"":33539},{""key"":""f"",""event"":""keyup"",""t"":33555},{""key"":""j"",""event"":""keydown"",""t"":33637},{""key"":""j"",""event"":""keyup"",""t"":33803},{""key"":""f"",""event"":""keydown"",""t"":33807},{""key"":""f"",""event"":""keyup"",""t"":33945},{""key"":""h"",""event"":""keydown"",""t"":34155},{""key"":""h"",""event"":""keyup"",""t"":34231},{""key"":""e"",""event"":""keydown"",""t"":35132},{""key"":""z"",""event"":""keydown"",""t"":35429},{""key"":""u"",""event"":""keydown"",""t"":35434},{""key"":""e"",""event"":""keyup"",""t"":35471},{""key"":""z"",""event"":""keyup"",""t"":35600},{""key"":""u"",""event"":""keyup"",""t"":35708},{""key"":""a"",""event"":""keydown"",""t"":35967},{""key"":""a"",""event"":""keyup"",""t"":36227},{""key"":""i"",""event"":""keydown"",""t"":36346},{""key"":""z"",""event"":""keydown"",""t"":36495},{""key"":""z"",""event"":""keyup"",""t"":36735},{""key"":""i"",""event"":""keyup"",""t"":36754},{""key"":""q"",""event"":""keydown"",""t"":37758},{""key"":""q"",""event"":""keyup"",""t"":37919},{""key"":""s"",""event"":""keydown"",""t"":38074},{""key"":""s"",""event"":""keyup"",""t"":38234},{""key"":""w"",""event"":""keydown"",""t"":38474},{""key"":""w"",""event"":""keyup"",""t"":38627},{""key"":""x"",""event"":""keydown"",""t"":38668},{""key"":""x"",""event"":""keyup"",""t"":38859},{""key"":""c"",""event"":""keydown"",""t"":38963},{""key"":""c"",""event"":""keyup"",""t"":39151},{""key"":""d"",""event"":""keydown"",""t"":39293},{""key"":""d"",""event"":""keyup"",""t"":39505},{""key"":""v"",""event"":""keydown"",""t"":39939},{""key"":""b"",""event"":""keydown"",""t"":40029},{""key"":""v"",""event"":""keyup"",""t"":40077},{""key"":""b"",""event"":""keyup"",""t"":40178},{""key"":""f"",""event"":""keydown"",""t"":40222},{""key"":""g"",""event"":""keydown"",""t"":40337},{""key"":""f"",""event"":""keyup"",""t"":40416},{""key"":""g"",""event"":""keyup"",""t"":40422},{""key"":""h"",""event"":""keydown"",""t"":40598},{""key"":""h"",""event"":""keyup"",""t"":40743},{""key"":""r"",""event"":""keydown"",""t"":40774},{""key"":""y"",""event"":""keydown"",""t"":40907},{""key"":""r"",""event"":""keyup"",""t"":40923},{""key"":""t"",""event"":""keydown"",""t"":41165},{""key"":""y"",""event"":""keyup"",""t"":41171},{""key"":""t"",""event"":""keyup"",""t"":41336},{""key"":""j"",""event"":""keydown"",""t"":41466},{""key"":""j"",""event"":""keyup"",""t"":41647},{""key"":""g"",""event"":""keydown"",""t"":41766},{""key"":""j"",""event"":""keydown"",""t"":41799},{""key"":""g"",""event"":""keyup"",""t"":41984},{""key"":""j"",""event"":""keyup"",""t"":41995},{""key"":""k"",""event"":""keydown"",""t"":42148},{""key"":""k"",""event"":""keyup"",""t"":42328},{""key"":""k"",""event"":""keydown"",""t"":42487},{""key"":""k"",""event"":""keyup"",""t"":42610},{""key"":""b"",""event"":""keydown"",""t"":42864},{""key"":""n"",""event"":""keydown"",""t"":42921},{""key"":""b"",""event"":""keyup"",""t"":43103},{""key"":""n"",""event"":""keyup"",""t"":43155},{""key"":""n"",""event"":""keydown"",""t"":44428},{""key"":""n"",""event"":""keyup"",""t"":44550},{""key"":""j"",""event"":""keydown"",""t"":44706},{""key"":""j"",""event"":""keyup"",""t"":44818},{""key"":""k"",""event"":""keydown"",""t"":44943},{""key"":""k"",""event"":""keyup"",""t"":45086},{""key"":""l"",""event"":""keydown"",""t"":45224},{""key"":""l"",""event"":""keyup"",""t"":45341},{""key"":""m"",""event"":""keydown"",""t"":45457},{""key"":""m"",""event"":""keyup"",""t"":45659},{""key"":""p"",""event"":""keydown"",""t"":45892},{""key"":""p"",""event"":""keyup"",""t"":46072},{""key"":""o"",""event"":""keydown"",""t"":46188},{""key"":""o"",""event"":""keyup"",""t"":46346},{""key"":""i"",""event"":""keydown"",""t"":46448},{""key"":""i"",""event"":""keyup"",""t"":46592},{""key"":""u"",""event"":""keydown"",""t"":46844},{""key"":""u"",""event"":""keyup"",""t"":47045},{""key"":""y"",""event"":""keydown"",""t"":47345},{""key"":""y"",""event"":""keyup"",""t"":47572},{""key"":""y"",""event"":""keydown"",""t"":47703},{""key"":""y"",""event"":""keyup"",""t"":47786},{""key"":""t"",""event"":""keydown"",""t"":47897},{""key"":""t"",""event"":""keyup"",""t"":47950},{""key"":""g"",""event"":""keydown"",""t"":48193},{""key"":""r"",""event"":""keydown"",""t"":48218},{""key"":""g"",""event"":""keyup"",""t"":48394},{""key"":""r"",""event"":""keyup"",""t"":48420},{""key"":""e"",""event"":""keydown"",""t"":48519},{""key"":""g"",""event"":""keydown"",""t"":48547},{""key"":""g"",""event"":""keyup"",""t"":48727},{""key"":""e"",""event"":""keyup"",""t"":48753},{""key"":""h"",""event"":""keydown"",""t"":48953},{""key"":""h"",""event"":""keyup"",""t"":49236},{""key"":""a"",""event"":""keydown"",""t"":49340},{""key"":""a"",""event"":""keyup"",""t"":49537},{""key"":""f"",""event"":""keydown"",""t"":50836},{""key"":""s"",""event"":""keydown"",""t"":50904},{""key"":""d"",""event"":""keydown"",""t"":50919},{""key"":""f"",""event"":""keyup"",""t"":50923},{""key"":""f"",""event"":""keydown"",""t"":51040},{""key"":""s"",""event"":""keyup"",""t"":51083},{""key"":""s"",""event"":""keydown"",""t"":51157},{""key"":""f"",""event"":""keyup"",""t"":51194},{""key"":""f"",""event"":""keydown"",""t"":51258},{""key"":""s"",""event"":""keyup"",""t"":51322},{""key"":""d"",""event"":""keyup"",""t"":51386},{""key"":""d"",""event"":""keydown"",""t"":51415},{""key"":""f"",""event"":""keyup"",""t"":51439},{""key"":""f"",""event"":""keydown"",""t"":51475},{""key"":""s"",""event"":""keydown"",""t"":51649},{""key"":""f"",""event"":""keyup"",""t"":51668},{""key"":""d"",""event"":""keyup"",""t"":51769},{""key"":""s"",""event"":""keyup"",""t"":51773},{""key"":""e"",""event"":""keydown"",""t"":51922},{""key"":""f"",""event"":""keydown"",""t"":52027},{""key"":""f"",""event"":""keyup"",""t"":52117},{""key"":""e"",""event"":""keyup"",""t"":52224},{""key"":""q"",""event"":""keydown"",""t"":52401},{""key"":""q"",""event"":""keyup"",""t"":52592},{""key"":""q"",""event"":""keydown"",""t"":53162},{""key"":""q"",""event"":""keyup"",""t"":53237},{""key"":""q"",""event"":""keydown"",""t"":53313},{""key"":""q"",""event"":""keyup"",""t"":53483},{""key"":""w"",""event"":""keydown"",""t"":53655},{""key"":""w"",""event"":""keyup"",""t"":53808},{""key"":""w"",""event"":""keydown"",""t"":53864},{""key"":""w"",""event"":""keyup"",""t"":54065},{""key"":"" "",""event"":""keydown"",""t"":54279},{""key"":"" "",""event"":""keyup"",""t"":54384},{""key"":"" "",""event"":""keydown"",""t"":54442},{""key"":"" "",""event"":""keyup"",""t"":54528},{""key"":"" "",""event"":""keydown"",""t"":54595},{""key"":"" "",""event"":""keyup"",""t"":54753},{""key"":""w"",""event"":""keydown"",""t"":56356},{""key"":""w"",""event"":""keyup"",""t"":56444},{""key"":""w"",""event"":""keydown"",""t"":56512},{""key"":""w"",""event"":""keyup"",""t"":56618},{""key"":""w"",""event"":""keydown"",""t"":56697},{""key"":""w"",""event"":""keyup"",""t"":56886},{""key"":""x"",""event"":""keydown"",""t"":57346},{""key"":""x"",""event"":""keyup"",""t"":57537},{""key"":""d"",""event"":""keydown"",""t"":60249},{""key"":""d"",""event"":""keyup"",""t"":60473},{""key"":""f"",""event"":""keydown"",""t"":60747},{""key"":""f"",""event"":""keyup"",""t"":60997},{""key"":""r"",""event"":""keydown"",""t"":69277},{""key"":""r"",""event"":""keydown"",""t"":69802},{""key"":""r"",""event"":""keydown"",""t"":69838},{""key"":""r"",""event"":""keydown"",""t"":69879},{""key"":""r"",""event"":""keydown"",""t"":69913},{""key"":""r"",""event"":""keydown"",""t"":69950},{""key"":""r"",""event"":""keydown"",""t"":69987},{""key"":""r"",""event"":""keydown"",""t"":70024},{""key"":""r"",""event"":""keydown"",""t"":70064},{""key"":""r"",""event"":""keydown"",""t"":70099},{""key"":""r"",""event"":""keydown"",""t"":70137},{""key"":""r"",""event"":""keydown"",""t"":70173},{""key"":""r"",""event"":""keydown"",""t"":70213},{""key"":""r"",""event"":""keydown"",""t"":70249},{""key"":""r"",""event"":""keydown"",""t"":70286},{""key"":""r"",""event"":""keydown"",""t"":70322},{""key"":""r"",""event"":""keyup"",""t"":70380},{""key"":""r"",""event"":""keydown"",""t"":70499},{""key"":""r"",""event"":""keyup"",""t"":70791},{""key"":""r"",""event"":""keydown"",""t"":70817},{""key"":""r"",""event"":""keyup"",""t"":70987},{""key"":""r"",""event"":""keydown"",""t"":71071},{""key"":""r"",""event"":""keyup"",""t"":71208},{""key"":""r"",""event"":""keydown"",""t"":71282},{""key"":""r"",""event"":""keyup"",""t"":71449},{""key"":""a"",""event"":""keydown"",""t"":72105},{""key"":""a"",""event"":""keyup"",""t"":72303},{""key"":""z"",""event"":""keydown"",""t"":72477},{""key"":""z"",""event"":""keyup"",""t"":72646},{""key"":""e"",""event"":""keydown"",""t"":72790},{""key"":""e"",""event"":""keyup"",""t"":72955},{""key"":""r"",""event"":""keydown"",""t"":73144},{""key"":""r"",""event"":""keyup"",""t"":73296},{""key"":""q"",""event"":""keydown"",""t"":73822},{""key"":""q"",""event"":""keyup"",""t"":73995},{""key"":""s"",""event"":""keydown"",""t"":74130},{""key"":""s"",""event"":""keyup"",""t"":74326},{""key"":""d"",""event"":""keydown"",""t"":74471},{""key"":""d"",""event"":""keyup"",""t"":74683},{""key"":""f"",""event"":""keydown"",""t"":74869},{""key"":""f"",""event"":""keyup"",""t"":75067},{""key"":""w"",""event"":""keydown"",""t"":75801},{""key"":""w"",""event"":""keyup"",""t"":75954},{""key"":""x"",""event"":""keydown"",""t"":76095},{""key"":""x"",""event"":""keyup"",""t"":76273},{""key"":""c"",""event"":""keydown"",""t"":76403},{""key"":""c"",""event"":""keyup"",""t"":76582},{""key"":""v"",""event"":""keydown"",""t"":76711},{""key"":""v"",""event"":""keyup"",""t"":76889},{""key"":""b"",""event"":""keydown"",""t"":77046},{""key"":""b"",""event"":""keyup"",""t"":77216},{""key"":""n"",""event"":""keydown"",""t"":77338},{""key"":""n"",""event"":""keyup"",""t"":77516},{""key"":""m"",""event"":""keydown"",""t"":78110},{""key"":""m"",""event"":""keyup"",""t"":78259},{""key"":""l"",""event"":""keydown"",""t"":78353},{""key"":""l"",""event"":""keyup"",""t"":78489},{""key"":""k"",""event"":""keydown"",""t"":78556},{""key"":""k"",""event"":""keyup"",""t"":78761},{""key"":""j"",""event"":""keydown"",""t"":79055},{""key"":""j"",""event"":""keyup"",""t"":79289},{""key"":""h"",""event"":""keydown"",""t"":79458},{""key"":""h"",""event"":""keyup"",""t"":79664},{""key"":""h"",""event"":""keydown"",""t"":80021},{""key"":""h"",""event"":""keyup"",""t"":80197},{""key"":""g"",""event"":""keydown"",""t"":80345},{""key"":""g"",""event"":""keyup"",""t"":80509},{""key"":""f"",""event"":""keydown"",""t"":80928},{""key"":""f"",""event"":""keyup"",""t"":81086},{""key"":""d"",""event"":""keydown"",""t"":81437},{""key"":""d"",""event"":""keyup"",""t"":81560},{""key"":""s"",""event"":""keydown"",""t"":81959},{""key"":""s"",""event"":""keyup"",""t"":82053},{""key"":""q"",""event"":""keydown"",""t"":82276},{""key"":""q"",""event"":""keyup"",""t"":82364},{""key"":""a"",""event"":""keydown"",""t"":82527},{""key"":""a"",""event"":""keyup"",""t"":82634},{""key"":""z"",""event"":""keydown"",""t"":82778},{""key"":""z"",""event"":""keyup"",""t"":82899},{""key"":""e"",""event"":""keydown"",""t"":83045},{""key"":""e"",""event"":""keyup"",""t"":83196},{""key"":""r"",""event"":""keydown"",""t"":83313},{""key"":""r"",""event"":""keyup"",""t"":83437},{""key"":""t"",""event"":""keydown"",""t"":83782},{""key"":""t"",""event"":""keyup"",""t"":83938},{""key"":""y"",""event"":""keydown"",""t"":84068},{""key"":""y"",""event"":""keyup"",""t"":84237},{""key"":""u"",""event"":""keydown"",""t"":84391},{""key"":""u"",""event"":""keyup"",""t"":84592},{""key"":""i"",""event"":""keydown"",""t"":84760},{""key"":""i"",""event"":""keyup"",""t"":84958},{""key"":""o"",""event"":""keydown"",""t"":85228},{""key"":""o"",""event"":""keyup"",""t"":85467},{""key"":""p"",""event"":""keydown"",""t"":85756},{""key"":""p"",""event"":""keyup"",""t"":86005},{""key"":""Dead"",""event"":""keydown"",""t"":87025},{""key"":""Dead"",""event"":""keyup"",""t"":87162},{""key"":""$"",""event"":""keydown"",""t"":87277},{""key"":""$"",""event"":""keyup"",""t"":87410},{""key"":""*"",""event"":""keydown"",""t"":87502},{""key"":""*"",""event"":""keyup"",""t"":87630},{""key"":""ù"",""event"":""keydown"",""t"":87736},{""key"":""ù"",""event"":""keyup"",""t"":87981},{""key"":""n"",""event"":""keydown"",""t"":89816},{""key"":""n"",""event"":""keyup"",""t"":89997},{""key"":""b"",""event"":""keydown"",""t"":90218},{""key"":""b"",""event"":""keyup"",""t"":90531},{""key"":""v"",""event"":""keydown"",""t"":90703},{""key"":""v"",""event"":""keyup"",""t"":90877},{""key"":""c"",""event"":""keydown"",""t"":91266},{""key"":""c"",""event"":""keyup"",""t"":91376},{""key"":""x"",""event"":""keydown"",""t"":91622},{""key"":""x"",""event"":""keyup"",""t"":91707},{""key"":""w"",""event"":""keydown"",""t"":92152},{""key"":""w"",""event"":""keyup"",""t"":92222},{""key"":"" "",""event"":""keydown"",""t"":92510},{""key"":"" "",""event"":""keyup"",""t"":92595},{""key"":"" "",""event"":""keydown"",""t"":92672},{""key"":"" "",""event"":""keyup"",""t"":92775},{""key"":"" "",""event"":""keydown"",""t"":92870},{""key"":"" "",""event"":""keyup"",""t"":93038},{""key"":""f"",""event"":""keydown"",""t"":94214},{""key"":""f"",""event"":""keyup"",""t"":94367},{""key"":""Backspace"",""event"":""keydown"",""t"":97856},{""key"":""Backspace"",""event"":""keyup"",""t"":97983},{""key"":""Backspace"",""event"":""keydown"",""t"":98119},{""key"":""Backspace"",""event"":""keyup"",""t"":98309},{""key"":""Enter"",""event"":""keydown"",""t"":98585},{""key"":""Enter"",""event"":""keyup"",""t"":98685},{""key"":""Enter"",""event"":""keydown"",""t"":98762},{""key"":""Enter"",""event"":""keyup"",""t"":98936},{""key"":"" "",""event"":""keydown"",""t"":102802},{""key"":"" "",""event"":""keyup"",""t"":102903},{""key"":"" "",""event"":""keydown"",""t"":102990},{""key"":"" "",""event"":""keyup"",""t"":103113},{""key"":""a"",""event"":""keydown"",""t"":103823},{""key"":""a"",""event"":""keydown"",""t"":104349},{""key"":""a"",""event"":""keydown"",""t"":104386},{""key"":""a"",""event"":""keydown"",""t"":104424},{""key"":""a"",""event"":""keydown"",""t"":104460},{""key"":""a"",""event"":""keydown"",""t"":104499},{""key"":""a"",""event"":""keydown"",""t"":104535},{""key"":""a"",""event"":""keydown"",""t"":104573},{""key"":""a"",""event"":""keydown"",""t"":104609},{""key"":""a"",""event"":""keyup"",""t"":104678},{""key"":""r"",""event"":""keydown"",""t"":105278},{""key"":""r"",""event"":""keyup"",""t"":105347},{""key"":""r"",""event"":""keydown"",""t"":105435},{""key"":""r"",""event"":""keyup"",""t"":105509},{""key"":""r"",""event"":""keydown"",""t"":105592},{""key"":""r"",""event"":""keyup"",""t"":105829},{""key"":""CapsLock"",""event"":""keydown"",""t"":132678},{""key"":""CapsLock"",""event"":""keyup"",""t"":132811},{""key"":""T"",""event"":""keydown"",""t"":133314},{""key"":""T"",""event"":""keyup"",""t"":133452},{""key"":""CapsLock"",""event"":""keydown"",""t"":133867},{""key"":""CapsLock"",""event"":""keyup"",""t"":133984},{""key"":""h"",""event"":""keydown"",""t"":134000},{""key"":""h"",""event"":""keyup"",""t"":134181},{""key"":""e"",""event"":""keydown"",""t"":134185},{""key"":""e"",""event"":""keyup"",""t"":134351},{""key"":"" "",""event"":""keydown"",""t"":134475},{""key"":"" "",""event"":""keyup"",""t"":134558},{""key"":""b"",""event"":""keydown"",""t"":135690},{""key"":""b"",""event"":""keyup"",""t"":135791},{""key"":""u"",""event"":""keydown"",""t"":136048},{""key"":""u"",""event"":""keyup"",""t"":136165},{""key"":""t"",""event"":""keydown"",""t"":138634},{""key"":""t"",""event"":""keyup"",""t"":138692},{""key"":""t"",""event"":""keydown"",""t"":138788},{""key"":""t"",""event"":""keyup"",""t"":138922},{""key"":""Backspace"",""event"":""keydown"",""t"":140191},{""key"":""Backspace"",""event"":""keydown"",""t"":140715},{""key"":""Backspace"",""event"":""keydown"",""t"":140751},{""key"":""Backspace"",""event"":""keydown"",""t"":140791},{""key"":""Backspace"",""event"":""keydown"",""t"":140826},{""key"":""Backspace"",""event"":""keydown"",""t"":140864},{""key"":""Backspace"",""event"":""keydown"",""t"":140901},{""key"":""Backspace"",""event"":""keydown"",""t"":140937},{""key"":""Backspace"",""event"":""keydown"",""t"":140975},{""key"":""Backspace"",""event"":""keydown"",""t"":141012},{""key"":""Backspace"",""event"":""keydown"",""t"":141049},{""key"":""Backspace"",""event"":""keydown"",""t"":141085},{""key"":""Backspace"",""event"":""keydown"",""t"":141125},{""key"":""Backspace"",""event"":""keydown"",""t"":141161},{""key"":""Backspace"",""event"":""keyup"",""t"":141235},{""key"":""CapsLock"",""event"":""keydown"",""t"":141545},{""key"":""CapsLock"",""event"":""keyup"",""t"":141642},{""key"":""C"",""event"":""keydown"",""t"":141904},{""key"":""C"",""event"":""keyup"",""t"":141968},{""key"":""CapsLock"",""event"":""keydown"",""t"":142271},{""key"":""o"",""event"":""keydown"",""t"":142356},{""key"":""CapsLock"",""event"":""keyup"",""t"":142415},{""key"":""o"",""event"":""keyup"",""t"":142463},{""key"":""u"",""event"":""keydown"",""t"":142579},{""key"":""u"",""event"":""keyup"",""t"":142679},{""key"":""l"",""event"":""keydown"",""t"":142846},{""key"":""l"",""event"":""keyup"",""t"":142940},{""key"":""d"",""event"":""keydown"",""t"":142947},{""key"":""d"",""event"":""keyup"",""t"":143053},{""key"":"" "",""event"":""keydown"",""t"":143240},{""key"":"" "",""event"":""keyup"",""t"":143409},{""key"":""n"",""event"":""keydown"",""t"":143649},{""key"":""n"",""event"":""keyup"",""t"":143741},{""key"":""o"",""event"":""keydown"",""t"":143927},{""key"":""o"",""event"":""keyup"",""t"":144001},{""key"":""t"",""event"":""keydown"",""t"":144066},{""key"":""t"",""event"":""keyup"",""t"":144215},{""key"":"" "",""event"":""keydown"",""t"":144273},{""key"":"" "",""event"":""keyup"",""t"":144369},{""key"":""r"",""event"":""keydown"",""t"":145338},{""key"":""r"",""event"":""keyup"",""t"":145492},{""key"":""e"",""event"":""keydown"",""t"":145947},{""key"":""e"",""event"":""keyup"",""t"":146080},{""key"":""s"",""event"":""keydown"",""t"":146456},{""key"":""s"",""event"":""keyup"",""t"":146588},{""key"":""t"",""event"":""keydown"",""t"":146808},{""key"":""t"",""event"":""keyup"",""t"":146946},{""key"":""a"",""event"":""keydown"",""t"":147218},{""key"":""a"",""event"":""keyup"",""t"":147325},{""key"":""r"",""event"":""keydown"",""t"":147445},{""key"":""r"",""event"":""keyup"",""t"":147590},{""key"":""t"",""event"":""keydown"",""t"":147661},{""key"":""t"",""event"":""keyup"",""t"":147819},{""key"":"" "",""event"":""keydown"",""t"":148003},{""key"":"" "",""event"":""keyup"",""t"":148120},{""key"":""t"",""event"":""keydown"",""t"":149241},{""key"":""t"",""event"":""keyup"",""t"":149373},{""key"":""h"",""event"":""keydown"",""t"":149413},{""key"":""h"",""event"":""keyup"",""t"":149580},{""key"":""e"",""event"":""keydown"",""t"":149600},{""key"":""e"",""event"":""keyup"",""t"":149746},{""key"":"" "",""event"":""keydown"",""t"":150104},{""key"":"" "",""event"":""keyup"",""t"":150267},{""key"":""g"",""event"":""keydown"",""t"":150532},{""key"":""g"",""event"":""keyup"",""t"":150645},{""key"":""a"",""event"":""keydown"",""t"":150836},{""key"":""a"",""event"":""keyup"",""t"":150962},{""key"":""m"",""event"":""keydown"",""t"":151022},{""key"":""m"",""event"":""keyup"",""t"":151111},{""key"":""e"",""event"":""keydown"",""t"":151140},{""key"":""e"",""event"":""keyup"",""t"":151261},{""key"":""."",""event"":""keydown"",""t"":152044},{""key"":""."",""event"":""keyup"",""t"":152139},{""key"":"" "",""event"":""keydown"",""t"":152245},{""key"":"" "",""event"":""keyup"",""t"":152336},{""key"":""CapsLock"",""event"":""keydown"",""t"":152790},{""key"":""CapsLock"",""event"":""keyup"",""t"":152915},{""key"":""T"",""event"":""keydown"",""t"":153122},{""key"":""T"",""event"":""keyup"",""t"":153241},{""key"":""CapsLock"",""event"":""keydown"",""t"":153411},{""key"":""h"",""event"":""keydown"",""t"":153517},{""key"":""CapsLock"",""event"":""keyup"",""t"":153549},{""key"":""h"",""event"":""keyup"",""t"":153597},{""key"":""e"",""event"":""keydown"",""t"":153662},{""key"":""e"",""event"":""keyup"",""t"":153778},{""key"":""y"",""event"":""keydown"",""t"":153809},{""key"":""y"",""event"":""keyup"",""t"":153911},{""key"":"" "",""event"":""keydown"",""t"":153983},{""key"":"" "",""event"":""keyup"",""t"":154068},{""key"":""s"",""event"":""keydown"",""t"":154211},{""key"":""s"",""event"":""keyup"",""t"":154337},{""key"":""a"",""event"":""keydown"",""t"":154823},{""key"":""y"",""event"":""keydown"",""t"":154955},{""key"":""a"",""event"":""keyup"",""t"":154963},{""key"":""y"",""event"":""keyup"",""t"":155077},{""key"":"" "",""event"":""keydown"",""t"":155211},{""key"":"" "",""event"":""keyup"",""t"":155320},{""key"":""t"",""event"":""keydown"",""t"":156152},{""key"":""t"",""event"":""keyup"",""t"":156289},{""key"":""o"",""event"":""keydown"",""t"":156315},{""key"":""o"",""event"":""keyup"",""t"":156389},{""key"":"" "",""event"":""keydown"",""t"":156466},{""key"":"" "",""event"":""keyup"",""t"":156578},{""key"":""p"",""event"":""keydown"",""t"":156622},{""key"":""p"",""event"":""keyup"",""t"":156706},{""key"":""r"",""event"":""keydown"",""t"":156722},{""key"":""r"",""event"":""keyup"",""t"":156863},{""key"":""e"",""event"":""keydown"",""t"":156926},{""key"":""e"",""event"":""keyup"",""t"":157017},{""key"":""s"",""event"":""keydown"",""t"":157139},{""key"":""s"",""event"":""keyup"",""t"":157192},{""key"":""s"",""event"":""keydown"",""t"":157252},{""key"":""s"",""event"":""keyup"",""t"":157374},{""key"":"" "",""event"":""keydown"",""t"":157505},{""key"":"" "",""event"":""keyup"",""t"":157584},{""key"":""CapsLock"",""event"":""keydown"",""t"":157601},{""key"":""CapsLock"",""event"":""keyup"",""t"":157724},{""key"":""R"",""event"":""keydown"",""t"":157867},{""key"":""R"",""event"":""keyup"",""t"":157996},{""key"":""CapsLock"",""event"":""keydown"",""t"":158589},{""key"":""CapsLock"",""event"":""keyup"",""t"":158712},{""key"":"" "",""event"":""keydown"",""t"":158739},{""key"":"" "",""event"":""keyup"",""t"":158812},{""key"":""b"",""event"":""keydown"",""t"":159016},{""key"":""b"",""event"":""keyup"",""t"":159103},{""key"":""u"",""event"":""keydown"",""t"":159306},{""key"":""u"",""event"":""keyup"",""t"":159406},{""key"":""t"",""event"":""keydown"",""t"":159504},{""key"":""t"",""event"":""keyup"",""t"":159637},{""key"":"" "",""event"":""keydown"",""t"":159733},{""key"":"" "",""event"":""keyup"",""t"":159824},{""key"":""p"",""event"":""keydown"",""t"":160046},{""key"":""p"",""event"":""keyup"",""t"":160130},{""key"":""r"",""event"":""keydown"",""t"":160134},{""key"":""r"",""event"":""keyup"",""t"":160268},{""key"":""e"",""event"":""keydown"",""t"":160349},{""key"":""e"",""event"":""keyup"",""t"":160456},{""key"":""s"",""event"":""keydown"",""t"":160574},{""key"":""s"",""event"":""keyup"",""t"":160637},{""key"":""s"",""event"":""keydown"",""t"":160709},{""key"":""s"",""event"":""keyup"",""t"":160823},{""key"":""i"",""event"":""keydown"",""t"":160893},{""key"":""i"",""event"":""keyup"",""t"":160981},{""key"":""n"",""event"":""keydown"",""t"":161148},{""key"":""n"",""event"":""keyup"",""t"":161249},{""key"":""g"",""event"":""keydown"",""t"":161289},{""key"":"" "",""event"":""keydown"",""t"":161406},{""key"":""g"",""event"":""keyup"",""t"":161417},{""key"":"" "",""event"":""keyup"",""t"":161493},{""key"":""CapsLock"",""event"":""keydown"",""t"":161820},{""key"":""CapsLock"",""event"":""keyup"",""t"":161926},{""key"":""R"",""event"":""keydown"",""t"":162052},{""key"":""R"",""event"":""keyup"",""t"":162200},{""key"":""CapsLock"",""event"":""keydown"",""t"":162340},{""key"":"" "",""event"":""keydown"",""t"":162443},{""key"":""CapsLock"",""event"":""keyup"",""t"":162470},{""key"":"" "",""event"":""keyup"",""t"":162522},{""key"":""d"",""event"":""keydown"",""t"":162614},{""key"":""d"",""event"":""keyup"",""t"":162746},{""key"":""e"",""event"":""keydown"",""t"":162856},{""key"":""e"",""event"":""keyup"",""t"":162952},{""key"":""s"",""event"":""keydown"",""t"":163227},{""key"":""s"",""event"":""keyup"",""t"":163355},{""key"":""Backspace"",""event"":""keydown"",""t"":163856},{""key"":""Backspace"",""event"":""keyup"",""t"":163925},{""key"":""Backspace"",""event"":""keydown"",""t"":163988},{""key"":""Backspace"",""event"":""keyup"",""t"":164089},{""key"":""o"",""event"":""keydown"",""t"":164228},{""key"":""e"",""event"":""keydown"",""t"":164341},{""key"":""o"",""event"":""keyup"",""t"":164344},{""key"":""e"",""event"":""keyup"",""t"":164408},{""key"":""s"",""event"":""keydown"",""t"":164529},{""key"":""s"",""event"":""keyup"",""t"":164604},{""key"":"" "",""event"":""keydown"",""t"":164772},{""key"":"" "",""event"":""keyup"",""t"":164825},{""key"":""n"",""event"":""keydown"",""t"":164835},{""key"":""n"",""event"":""keyup"",""t"":164926},{""key"":""o"",""event"":""keydown"",""t"":165102},{""key"":""o"",""event"":""keyup"",""t"":165195},{""key"":""t"",""event"":""keydown"",""t"":165244},{""key"":""t"",""event"":""keyup"",""t"":165352},{""key"":""h"",""event"":""keydown"",""t"":165380},{""key"":""h"",""event"":""keyup"",""t"":165471},{""key"":""i"",""event"":""keydown"",""t"":165611},{""key"":""i"",""event"":""keyup"",""t"":165696},{""key"":""n"",""event"":""keydown"",""t"":165855},{""key"":""n"",""event"":""keyup"",""t"":165925},{""key"":""g"",""event"":""keydown"",""t"":165959},{""key"":""g"",""event"":""keyup"",""t"":166092},{""key"":"" "",""event"":""keydown"",""t"":166563},{""key"":"" "",""event"":""keyup"",""t"":166667},{""key"":"" "",""event"":""keydown"",""t"":166923},{""key"":"" "",""event"":""keyup"",""t"":166989},{""key"":""Backspace"",""event"":""keydown"",""t"":167371},{""key"":""Backspace"",""event"":""keyup"",""t"":167457},{""key"":""i"",""event"":""keydown"",""t"":167625},{""key"":""i"",""event"":""keyup"",""t"":167716},{""key"":"" "",""event"":""keydown"",""t"":167732},{""key"":"" "",""event"":""keyup"",""t"":167836},{""key"":""w"",""event"":""keydown"",""t"":168193},{""key"":""w"",""event"":""keyup"",""t"":168302},{""key"":""a"",""event"":""keydown"",""t"":168418},{""key"":""a"",""event"":""keyup"",""t"":168522},{""key"":""s"",""event"":""keydown"",""t"":168585},{""key"":""s"",""event"":""keyup"",""t"":168682},{""key"":"" "",""event"":""keydown"",""t"":168717},{""key"":"" "",""event"":""keyup"",""t"":168786},{""key"":""s"",""event"":""keydown"",""t"":168813},{""key"":""s"",""event"":""keyup"",""t"":168912},{""key"":""t"",""event"":""keydown"",""t"":169054},{""key"":""t"",""event"":""keyup"",""t"":169195},{""key"":""u"",""event"":""keydown"",""t"":169339},{""key"":""u"",""event"":""keyup"",""t"":169429},{""key"":""c"",""event"":""keydown"",""t"":169501},{""key"":""c"",""event"":""keyup"",""t"":169633},{""key"":""k"",""event"":""keydown"",""t"":169752},{""key"":""k"",""event"":""keyup"",""t"":169853},{""key"":""."",""event"":""keydown"",""t"":170699},{""key"":""."",""event"":""keyup"",""t"":170800}]","[]"
"180708","","{""creativity-rating"":1,""creativity-free-response"":""It was uncreative a classic black and white 2D game."",""originality-rating"":1,""originality-free-response"":""It was very unoriginal just a classic black and white 2D game."",""effectiveness-rating"":1,""effectiveness-free-response"":""It was very boring and frustrating a round can end too quickly in 1 second."",""authenticity-rating"":1,""attention-check"":3,""intentionality-rating"":1,""authenticity-intentionality-free-response"":""I think i saw this type of game 100 times already. It reflected the developer's lazy mindset.""}","evaluation-chat-1-echo","survey","12","1391245","0.0-12.0","5d164f9b1a4be700176367bd","6987c292780adf01bb926159","69ade881686065c46a87720d","","","","","","",""
"55494","","{""concept-creativity-rating"":1,""concept-implementation-rating"":3,""question1"":null}","concept-chat-1-echo","survey","13","1446764","0.0-13.0","5d164f9b1a4be700176367bd","6987c292780adf01bb926159","69ade881686065c46a87720d","","","","","","",""
"5156","You have completed all of the games!<br><br>Press any key to proceed to some final questions before returning to Prolific.","enter","pre-baseline-questions","html-keyboard-response","14","1451922","0.0-14.0","5d164f9b1a4be700176367bd","6987c292780adf01bb926159","69ade881686065c46a87720d","","","","","","",""
"29917","","{""baseline_originality_rating"":3,""baseline_effectiveness_rating"":4,""baseline_authenticity_rating"":3,""baseline_intentionality_rating"":5}","baseline-questions-rating","survey","15","1481866","0.0-15.0","5d164f9b1a4be700176367bd","6987c292780adf01bb926159","69ade881686065c46a87720d","","","","","","",""
"94885","","{""ai_aware_question"":""No i did not know they were generated by AI. Most games nowadays are copy paste of the same type of games anyway like the souls-like game or hero shooter or battle royale.""}","ai-aware-question","survey","16","1576764","0.0-16.0","5d164f9b1a4be700176367bd","6987c292780adf01bb926159","69ade881686065c46a87720d","","","","","","",""
"4604","
        <p> You have completed the experiment! Press any key to save your data and get redirected back to Prolific. <strong>Please do not close the page until you have been redirected to Prolific.</strong> <p>
      "," ","goodbye","html-keyboard-response","17","1581369","0.0-17.0","5d164f9b1a4be700176367bd","6987c292780adf01bb926159","69ade881686065c46a87720d","","","","","","",""
