"rt","stimulus","response","phase","trial_type","trial_index","time_elapsed","internal_node_id","prolific_subject_id","study_id","session_id","exit_reason","exit_stage","exit_progress","game_data","emergency_text","keystrokes","mouse_events"
"18866","Welcome! In this study, you will play three short video games, completing a short survey after each game.<br><br>Please make sure you are in a quiet environment where you can focus for the duration of the study. Some games may use sound, so please ensure that your device's volume is not muted.<br><br>Press any key to begin."," ","welcome-message","html-keyboard-response","0","18870","0.0-0.0","698dfb569c22eca3eb8b65fa","6987c292780adf01bb926159","69a61e4924cc30e3e6cb442b","","","","","","",""
"11210","","{""commitment-check"":[""yes""]}","commitment-check","survey","1","30106","0.0-1.0","698dfb569c22eca3eb8b65fa","6987c292780adf01bb926159","69a61e4924cc30e3e6cb442b","","","","","","",""
"10630","Press any key to proceed to the first video game. Should you encounter a game-breaking bug, please report the issue in the Menu tab to the right of the screen."," ","pre-game-one-message","html-keyboard-response","2","40737","0.0-2.0","698dfb569c22eca3eb8b65fa","6987c292780adf01bb926159","69a61e4924cc30e3e6cb442b","","","","","","",""
"232700","","","game-gemini-4-substratum","plugin-game-iframe","3","273441","0.0-3.0","698dfb569c22eca3eb8b65fa","6987c292780adf01bb926159","69a61e4924cc30e3e6cb442b","emergency-exit","level 2/3 20%","{""stage"":""level 2/3 20%"",""detail"":{""levelIndex"":1,""levelNum"":2,""totalLevels"":3,""progressPct"":20,""heroX"":150,""heroMoving"":true,""isGameOver"":true}}","null","Leapfrog the platforms is impossible to do, I have like 0.5 second to do anything and hero dies.","[{""key"":"" "",""event"":""keyup"",""t"":109},{""key"":""ArrowUp"",""event"":""keydown"",""t"":3467},{""key"":""ArrowUp"",""event"":""keyup"",""t"":3638},{""key"":""ArrowLeft"",""event"":""keydown"",""t"":3863},{""key"":""ArrowLeft"",""event"":""keyup"",""t"":3937},{""key"":""ArrowRight"",""event"":""keydown"",""t"":3949},{""key"":""ArrowRight"",""event"":""keyup"",""t"":4101},{""key"":""ArrowLeft"",""event"":""keydown"",""t"":4325},{""key"":""ArrowLeft"",""event"":""keyup"",""t"":4473},{""key"":""ArrowUp"",""event"":""keydown"",""t"":17205},{""key"":""ArrowUp"",""event"":""keyup"",""t"":17368},{""key"":""ArrowUp"",""event"":""keydown"",""t"":17527},{""key"":""ArrowUp"",""event"":""keyup"",""t"":17663},{""key"":""ArrowDown"",""event"":""keydown"",""t"":19358},{""key"":""ArrowDown"",""event"":""keyup"",""t"":19492},{""key"":""ArrowUp"",""event"":""keydown"",""t"":19694},{""key"":""ArrowUp"",""event"":""keyup"",""t"":19876},{""key"":""ArrowLeft"",""event"":""keydown"",""t"":19914},{""key"":""ArrowDown"",""event"":""keydown"",""t"":20048},{""key"":""ArrowLeft"",""event"":""keyup"",""t"":20143},{""key"":""ArrowDown"",""event"":""keyup"",""t"":20221},{""key"":""CapsLock"",""event"":""keydown"",""t"":213478},{""key"":""CapsLock"",""event"":""keyup"",""t"":213586},{""key"":""L"",""event"":""keydown"",""t"":213952},{""key"":""L"",""event"":""keyup"",""t"":214038},{""key"":""CapsLock"",""event"":""keydown"",""t"":214267},{""key"":""CapsLock"",""event"":""keyup"",""t"":214352},{""key"":""e"",""event"":""keydown"",""t"":214519},{""key"":""a"",""event"":""keydown"",""t"":214586},{""key"":""p"",""event"":""keydown"",""t"":214624},{""key"":""e"",""event"":""keyup"",""t"":214627},{""key"":""a"",""event"":""keyup"",""t"":214673},{""key"":""p"",""event"":""keyup"",""t"":214718},{""key"":""f"",""event"":""keydown"",""t"":214971},{""key"":""f"",""event"":""keyup"",""t"":215029},{""key"":""r"",""event"":""keydown"",""t"":215128},{""key"":""r"",""event"":""keyup"",""t"":215179},{""key"":""o"",""event"":""keydown"",""t"":215186},{""key"":""o"",""event"":""keyup"",""t"":215264},{""key"":""g"",""event"":""keydown"",""t"":215298},{""key"":""g"",""event"":""keyup"",""t"":215356},{""key"":"" "",""event"":""keydown"",""t"":215436},{""key"":""t"",""event"":""keydown"",""t"":215494},{""key"":"" "",""event"":""keyup"",""t"":215511},{""key"":""t"",""event"":""keyup"",""t"":215538},{""key"":""h"",""event"":""keydown"",""t"":215613},{""key"":""h"",""event"":""keyup"",""t"":215685},{""key"":""e"",""event"":""keydown"",""t"":215746},{""key"":"" "",""event"":""keydown"",""t"":215790},{""key"":""e"",""event"":""keyup"",""t"":215844},{""key"":"" "",""event"":""keyup"",""t"":215889},{""key"":""p"",""event"":""keydown"",""t"":215900},{""key"":""p"",""event"":""keyup"",""t"":215978},{""key"":""l"",""event"":""keydown"",""t"":216110},{""key"":""l"",""event"":""keyup"",""t"":216172},{""key"":""a"",""event"":""keydown"",""t"":216188},{""key"":""a"",""event"":""keyup"",""t"":216267},{""key"":""t"",""event"":""keydown"",""t"":216294},{""key"":""t"",""event"":""keyup"",""t"":216354},{""key"":""f"",""event"":""keydown"",""t"":216453},{""key"":""f"",""event"":""keyup"",""t"":216534},{""key"":""o"",""event"":""keydown"",""t"":216535},{""key"":""o"",""event"":""keyup"",""t"":216578},{""key"":""r"",""event"":""keydown"",""t"":216630},{""key"":""m"",""event"":""keydown"",""t"":216690},{""key"":""r"",""event"":""keyup"",""t"":216696},{""key"":""m"",""event"":""keyup"",""t"":216748},{""key"":""s"",""event"":""keydown"",""t"":216783},{""key"":"" "",""event"":""keydown"",""t"":216856},{""key"":""s"",""event"":""keyup"",""t"":216885},{""key"":"" "",""event"":""keyup"",""t"":216943},{""key"":""i"",""event"":""keydown"",""t"":216972},{""key"":""s"",""event"":""keydown"",""t"":217020},{""key"":""i"",""event"":""keyup"",""t"":217032},{""key"":"" "",""event"":""keydown"",""t"":217106},{""key"":""s"",""event"":""keyup"",""t"":217116},{""key"":"" "",""event"":""keyup"",""t"":217185},{""key"":""i"",""event"":""keydown"",""t"":217302},{""key"":""i"",""event"":""keyup"",""t"":217349},{""key"":""m"",""event"":""keydown"",""t"":217594},{""key"":""m"",""event"":""keyup"",""t"":217639},{""key"":""p"",""event"":""keydown"",""t"":217769},{""key"":""p"",""event"":""keyup"",""t"":217823},{""key"":""o"",""event"":""keydown"",""t"":217899},{""key"":""o"",""event"":""keyup"",""t"":217974},{""key"":""s"",""event"":""keydown"",""t"":218062},{""key"":""s"",""event"":""keyup"",""t"":218129},{""key"":""s"",""event"":""keydown"",""t"":218221},{""key"":""s"",""event"":""keyup"",""t"":218298},{""key"":""i"",""event"":""keydown"",""t"":218328},{""key"":""i"",""event"":""keyup"",""t"":218388},{""key"":""b"",""event"":""keydown"",""t"":218398},{""key"":""b"",""event"":""keyup"",""t"":218457},{""key"":""l"",""event"":""keydown"",""t"":218517},{""key"":""e"",""event"":""keydown"",""t"":218554},{""key"":""l"",""event"":""keyup"",""t"":218582},{""key"":"" "",""event"":""keydown"",""t"":218623},{""key"":""e"",""event"":""keyup"",""t"":218649},{""key"":""t"",""event"":""keydown"",""t"":218698},{""key"":"" "",""event"":""keyup"",""t"":218724},{""key"":""t"",""event"":""keyup"",""t"":218763},{""key"":""o"",""event"":""keydown"",""t"":218771},{""key"":""o"",""event"":""keyup"",""t"":218825},{""key"":"" "",""event"":""keydown"",""t"":218843},{""key"":"" "",""event"":""keyup"",""t"":218919},{""key"":""d"",""event"":""keydown"",""t"":219268},{""key"":""o"",""event"":""keydown"",""t"":219325},{""key"":""d"",""event"":""keyup"",""t"":219338},{""key"":""o"",""event"":""keyup"",""t"":219397},{""key"":"","",""event"":""keydown"",""t"":219673},{""key"":"","",""event"":""keyup"",""t"":219743},{""key"":"" "",""event"":""keydown"",""t"":219780},{""key"":"" "",""event"":""keyup"",""t"":219875},{""key"":""l"",""event"":""keydown"",""t"":220330},{""key"":""l"",""event"":""keyup"",""t"":220417},{""key"":""i"",""event"":""keydown"",""t"":220503},{""key"":""i"",""event"":""keyup"",""t"":220535},{""key"":""Control"",""event"":""keydown"",""t"":220829},{""key"":""Backspace"",""event"":""keydown"",""t"":220860},{""key"":""Backspace"",""event"":""keyup"",""t"":220958},{""key"":""Control"",""event"":""keyup"",""t"":220983},{""key"":""Shift"",""event"":""keydown"",""t"":221057},{""key"":""I"",""event"":""keydown"",""t"":221102},{""key"":""I"",""event"":""keyup"",""t"":221167},{""key"":""Shift"",""event"":""keyup"",""t"":221173},{""key"":"" "",""event"":""keydown"",""t"":221202},{""key"":"" "",""event"":""keyup"",""t"":221259},{""key"":""h"",""event"":""keydown"",""t"":221302},{""key"":""h"",""event"":""keyup"",""t"":221370},{""key"":""a"",""event"":""keydown"",""t"":221418},{""key"":""a"",""event"":""keyup"",""t"":221491},{""key"":""v"",""event"":""keydown"",""t"":221493},{""key"":""e"",""event"":""keydown"",""t"":221591},{""key"":""v"",""event"":""keyup"",""t"":221603},{""key"":"" "",""event"":""keydown"",""t"":221651},{""key"":""e"",""event"":""keyup"",""t"":221665},{""key"":""l"",""event"":""keydown"",""t"":221688},{""key"":"" "",""event"":""keyup"",""t"":221751},{""key"":""l"",""event"":""keyup"",""t"":221754},{""key"":""i"",""event"":""keydown"",""t"":222096},{""key"":""i"",""event"":""keyup"",""t"":222158},{""key"":""e"",""event"":""keydown"",""t"":222264},{""key"":""k"",""event"":""keydown"",""t"":222269},{""key"":"" "",""event"":""keydown"",""t"":222304},{""key"":""k"",""event"":""keyup"",""t"":222339},{""key"":""e"",""event"":""keyup"",""t"":222341},{""key"":"" "",""event"":""keyup"",""t"":222412},{""key"":""Backspace"",""event"":""keydown"",""t"":222879},{""key"":""Backspace"",""event"":""keyup"",""t"":222941},{""key"":""Backspace"",""event"":""keydown"",""t"":223005},{""key"":""Backspace"",""event"":""keyup"",""t"":223062},{""key"":""Backspace"",""event"":""keydown"",""t"":223124},{""key"":""Backspace"",""event"":""keyup"",""t"":223202},{""key"":""k"",""event"":""keydown"",""t"":223285},{""key"":""k"",""event"":""keyup"",""t"":223358},{""key"":""e"",""event"":""keydown"",""t"":223367},{""key"":"" "",""event"":""keydown"",""t"":223425},{""key"":""e"",""event"":""keyup"",""t"":223469},{""key"":"" "",""event"":""keyup"",""t"":223522},{""key"":""0"",""event"":""keydown"",""t"":224608},{""key"":""0"",""event"":""keyup"",""t"":224678},{""key"":""."",""event"":""keydown"",""t"":224792},{""key"":""5"",""event"":""keydown"",""t"":224862},{""key"":""."",""event"":""keyup"",""t"":224876},{""key"":""5"",""event"":""keyup"",""t"":224920},{""key"":"" "",""event"":""keydown"",""t"":225017},{""key"":""s"",""event"":""keydown"",""t"":225098},{""key"":"" "",""event"":""keyup"",""t"":225103},{""key"":""e"",""event"":""keydown"",""t"":225165},{""key"":""s"",""event"":""keyup"",""t"":225196},{""key"":""e"",""event"":""keyup"",""t"":225221},{""key"":""c"",""event"":""keydown"",""t"":225351},{""key"":""c"",""event"":""keyup"",""t"":225431},{""key"":""o"",""event"":""keydown"",""t"":225488},{""key"":""o"",""event"":""keyup"",""t"":225559},{""key"":""n"",""event"":""keydown"",""t"":225603},{""key"":""n"",""event"":""keyup"",""t"":225685},{""key"":""d"",""event"":""keydown"",""t"":225829},{""key"":""d"",""event"":""keyup"",""t"":225912},{""key"":"" "",""event"":""keydown"",""t"":225995},{""key"":"" "",""event"":""keyup"",""t"":226092},{""key"":""t"",""event"":""keydown"",""t"":226128},{""key"":""t"",""event"":""keyup"",""t"":226217},{""key"":""o"",""event"":""keydown"",""t"":226237},{""key"":"" "",""event"":""keydown"",""t"":226284},{""key"":""o"",""event"":""keyup"",""t"":226295},{""key"":""d"",""event"":""keydown"",""t"":226369},{""key"":"" "",""event"":""keyup"",""t"":226375},{""key"":""o"",""event"":""keydown"",""t"":226447},{""key"":""d"",""event"":""keyup"",""t"":226464},{""key"":"" "",""event"":""keydown"",""t"":226504},{""key"":""o"",""event"":""keyup"",""t"":226508},{""key"":"" "",""event"":""keyup"",""t"":226574},{""key"":""a"",""event"":""keydown"",""t"":226841},{""key"":""a"",""event"":""keyup"",""t"":226903},{""key"":""n"",""event"":""keydown"",""t"":227002},{""key"":""n"",""event"":""keyup"",""t"":227061},{""key"":""y"",""event"":""keydown"",""t"":227478},{""key"":""y"",""event"":""keyup"",""t"":227526},{""key"":""t"",""event"":""keydown"",""t"":227669},{""key"":""t"",""event"":""keyup"",""t"":227706},{""key"":""h"",""event"":""keydown"",""t"":228030},{""key"":""h"",""event"":""keyup"",""t"":228103},{""key"":""i"",""event"":""keydown"",""t"":228124},{""key"":""i"",""event"":""keyup"",""t"":228179},{""key"":""n"",""event"":""keydown"",""t"":228222},{""key"":""n"",""event"":""keyup"",""t"":228277},{""key"":""g"",""event"":""keydown"",""t"":228400},{""key"":""g"",""event"":""keyup"",""t"":228481},{""key"":"" "",""event"":""keydown"",""t"":228545},{""key"":"" "",""event"":""keyup"",""t"":228675},{""key"":""a"",""event"":""keydown"",""t"":228955},{""key"":""a"",""event"":""keyup"",""t"":229045},{""key"":""n"",""event"":""keydown"",""t"":229138},{""key"":""n"",""event"":""keyup"",""t"":229197},{""key"":""d"",""event"":""keydown"",""t"":229326},{""key"":"" "",""event"":""keydown"",""t"":229382},{""key"":""d"",""event"":""keyup"",""t"":229426},{""key"":"" "",""event"":""keyup"",""t"":229458},{""key"":""h"",""event"":""keydown"",""t"":231055},{""key"":""h"",""event"":""keyup"",""t"":231147},{""key"":""e"",""event"":""keydown"",""t"":231244},{""key"":""r"",""event"":""keydown"",""t"":231281},{""key"":""e"",""event"":""keyup"",""t"":231334},{""key"":""r"",""event"":""keyup"",""t"":231379},{""key"":""o"",""event"":""keydown"",""t"":231385},{""key"":""o"",""event"":""keyup"",""t"":231457},{""key"":"" "",""event"":""keydown"",""t"":231469},{""key"":""d"",""event"":""keydown"",""t"":231544},{""key"":"" "",""event"":""keyup"",""t"":231558},{""key"":""d"",""event"":""keyup"",""t"":231612},{""key"":""i"",""event"":""keydown"",""t"":231640},{""key"":""i"",""event"":""keyup"",""t"":231697},{""key"":""e"",""event"":""keydown"",""t"":231729},{""key"":""s"",""event"":""keydown"",""t"":231768},{""key"":""e"",""event"":""keyup"",""t"":231817},{""key"":""."",""event"":""keydown"",""t"":231859},{""key"":""s"",""event"":""keyup"",""t"":231863},{""key"":""."",""event"":""keyup"",""t"":231929}]","[]"
"160222","","{""creativity-rating"":1,""creativity-free-response"":""For me it was a game crated only to annoy people playing it."",""originality-rating"":2,""originality-free-response"":""2D game, no wasd usage only mouse, maybe you had to use your brain a little and that's all, kinda looks like geometry dash for poor people"",""effectiveness-rating"":1,""effectiveness-free-response"":""It was frustrating all the time, this game is create to frustrate people while playing."",""authenticity-rating"":1,""attention-check"":3,""intentionality-rating"":2,""authenticity-intentionality-free-response"":""When it comes to authetnticity I feel like I saw this game before, nothing special. About effort this game looks like vibe coded in 5 minutes.""}","evaluation-gemini-4-substratum","survey","4","433690","0.0-4.0","698dfb569c22eca3eb8b65fa","6987c292780adf01bb926159","69a61e4924cc30e3e6cb442b","","","","","","",""
"32984","","{""concept-creativity-rating"":3,""concept-implementation-rating"":5,""question1"":null}","concept-gemini-4-substratum","survey","5","466687","0.0-5.0","698dfb569c22eca3eb8b65fa","6987c292780adf01bb926159","69a61e4924cc30e3e6cb442b","","","","","","",""
"2478","You have completed your evaluation of the first video game.<br><br>Press any key to proceed to the second game."," ","pre-game-two-message","html-keyboard-response","6","469165","0.0-6.0","698dfb569c22eca3eb8b65fa","6987c292780adf01bb926159","69a61e4924cc30e3e6cb442b","","","","","","",""
"1005238","","","game-chat-6-tidepainter","plugin-game-iframe","7","1474408","0.0-7.0","698dfb569c22eca3eb8b65fa","6987c292780adf01bb926159","69a61e4924cc30e3e6cb442b","game-complete","end:success","{""stage"":""end:success"",""detail"":{""success"":true,""shellsFilled"":3,""wavesUsed"":8}}","{""result"":""win"",""shellsFilled"":3,""wavesUsed"":8}","null","[{""key"":"" "",""event"":""keyup"",""t"":45},{""key"":""1"",""event"":""keydown"",""t"":16260},{""key"":""2"",""event"":""keydown"",""t"":16354},{""key"":""1"",""event"":""keyup"",""t"":16382},{""key"":""2"",""event"":""keyup"",""t"":16465},{""key"":""5"",""event"":""keydown"",""t"":16627},{""key"":""5"",""event"":""keyup"",""t"":16758},{""key"":""1"",""event"":""keydown"",""t"":22183},{""key"":""1"",""event"":""keyup"",""t"":22275},{""key"":""2"",""event"":""keydown"",""t"":31348},{""key"":""2"",""event"":""keyup"",""t"":31497},{""key"":""2"",""event"":""keydown"",""t"":35330},{""key"":""2"",""event"":""keyup"",""t"":35508},{""key"":""1"",""event"":""keydown"",""t"":36939},{""key"":""1"",""event"":""keyup"",""t"":37072},{""key"":""2"",""event"":""keydown"",""t"":37547},{""key"":""2"",""event"":""keyup"",""t"":37686},{""key"":""2"",""event"":""keydown"",""t"":38044},{""key"":""2"",""event"":""keyup"",""t"":38208},{""key"":""2"",""event"":""keydown"",""t"":38551},{""key"":""2"",""event"":""keyup"",""t"":38781},{""key"":""2"",""event"":""keydown"",""t"":39864},{""key"":""2"",""event"":""keyup"",""t"":40044},{""key"":""1"",""event"":""keydown"",""t"":40394},{""key"":""1"",""event"":""keyup"",""t"":40501},{""key"":""5"",""event"":""keydown"",""t"":45201},{""key"":""5"",""event"":""keyup"",""t"":45307},{""key"":""2"",""event"":""keydown"",""t"":57048},{""key"":""2"",""event"":""keyup"",""t"":57171},{""key"":""1"",""event"":""keydown"",""t"":61970},{""key"":""1"",""event"":""keyup"",""t"":62069},{""key"":""2"",""event"":""keydown"",""t"":93633},{""key"":""2"",""event"":""keyup"",""t"":93761},{""key"":""1"",""event"":""keydown"",""t"":95267},{""key"":""1"",""event"":""keyup"",""t"":95423},{""key"":""2"",""event"":""keydown"",""t"":102394},{""key"":""2"",""event"":""keyup"",""t"":102536},{""key"":""1"",""event"":""keydown"",""t"":111424},{""key"":""1"",""event"":""keyup"",""t"":111518},{""key"":""5"",""event"":""keydown"",""t"":128528},{""key"":""5"",""event"":""keyup"",""t"":128636},{""key"":""5"",""event"":""keydown"",""t"":129892},{""key"":""5"",""event"":""keyup"",""t"":130050},{""key"":""1"",""event"":""keydown"",""t"":131058},{""key"":""1"",""event"":""keyup"",""t"":131172},{""key"":""Control"",""event"":""keydown"",""t"":138580},{""key"":""Control"",""event"":""keyup"",""t"":138653},{""key"":""5"",""event"":""keydown"",""t"":138821},{""key"":""5"",""event"":""keyup"",""t"":138922},{""key"":""5"",""event"":""keydown"",""t"":144398},{""key"":""5"",""event"":""keyup"",""t"":144513},{""key"":""1"",""event"":""keydown"",""t"":146040},{""key"":""1"",""event"":""keyup"",""t"":146185},{""key"":""5"",""event"":""keydown"",""t"":147055},{""key"":""5"",""event"":""keyup"",""t"":147145},{""key"":""5"",""event"":""keydown"",""t"":147639},{""key"":""5"",""event"":""keyup"",""t"":147779},{""key"":""1"",""event"":""keydown"",""t"":150412},{""key"":""1"",""event"":""keyup"",""t"":150527},{""key"":""1"",""event"":""keydown"",""t"":165259},{""key"":""1"",""event"":""keyup"",""t"":165364},{""key"":""1"",""event"":""keydown"",""t"":168835},{""key"":""1"",""event"":""keyup"",""t"":168984},{""key"":""1"",""event"":""keydown"",""t"":169639},{""key"":""1"",""event"":""keyup"",""t"":169743},{""key"":""1"",""event"":""keydown"",""t"":171456},{""key"":""1"",""event"":""keyup"",""t"":171610},{""key"":""1"",""event"":""keydown"",""t"":195192},{""key"":""1"",""event"":""keyup"",""t"":195316},{""key"":""5"",""event"":""keydown"",""t"":198133},{""key"":""5"",""event"":""keyup"",""t"":198252},{""key"":""1"",""event"":""keydown"",""t"":199727},{""key"":""1"",""event"":""keyup"",""t"":199807},{""key"":""1"",""event"":""keydown"",""t"":200346},{""key"":""1"",""event"":""keyup"",""t"":200472},{""key"":""1"",""event"":""keydown"",""t"":201971},{""key"":""1"",""event"":""keyup"",""t"":202170},{""key"":""5"",""event"":""keydown"",""t"":203067},{""key"":""5"",""event"":""keyup"",""t"":203175},{""key"":""1"",""event"":""keydown"",""t"":203702},{""key"":""1"",""event"":""keyup"",""t"":203810},{""key"":""2"",""event"":""keydown"",""t"":287184},{""key"":""2"",""event"":""keyup"",""t"":287290},{""key"":""1"",""event"":""keydown"",""t"":288417},{""key"":""1"",""event"":""keyup"",""t"":288529},{""key"":""1"",""event"":""keydown"",""t"":293120},{""key"":""1"",""event"":""keyup"",""t"":293269},{""key"":""5"",""event"":""keydown"",""t"":296337},{""key"":""5"",""event"":""keyup"",""t"":296450},{""key"":""1"",""event"":""keydown"",""t"":297478},{""key"":""1"",""event"":""keyup"",""t"":297604},{""key"":""1"",""event"":""keydown"",""t"":301763},{""key"":""1"",""event"":""keyup"",""t"":301881},{""key"":""1"",""event"":""keydown"",""t"":328835},{""key"":""1"",""event"":""keyup"",""t"":328931},{""key"":""1"",""event"":""keydown"",""t"":330110},{""key"":""1"",""event"":""keyup"",""t"":330249},{""key"":""5"",""event"":""keydown"",""t"":331979},{""key"":""5"",""event"":""keyup"",""t"":332089},{""key"":""1"",""event"":""keydown"",""t"":332550},{""key"":""1"",""event"":""keyup"",""t"":332662},{""key"":""1"",""event"":""keydown"",""t"":333761},{""key"":""1"",""event"":""keyup"",""t"":333853},{""key"":""5"",""event"":""keydown"",""t"":334054},{""key"":""5"",""event"":""keyup"",""t"":334186},{""key"":""1"",""event"":""keydown"",""t"":336633},{""key"":""1"",""event"":""keyup"",""t"":336729},{""key"":""1"",""event"":""keydown"",""t"":339278},{""key"":""1"",""event"":""keyup"",""t"":339391},{""key"":""5"",""event"":""keydown"",""t"":339724},{""key"":""5"",""event"":""keyup"",""t"":339791},{""key"":""1"",""event"":""keydown"",""t"":343328},{""key"":""1"",""event"":""keyup"",""t"":343458},{""key"":""5"",""event"":""keydown"",""t"":345046},{""key"":""5"",""event"":""keyup"",""t"":345137},{""key"":""1"",""event"":""keydown"",""t"":345820},{""key"":""1"",""event"":""keyup"",""t"":345916},{""key"":""1"",""event"":""keydown"",""t"":370220},{""key"":""1"",""event"":""keyup"",""t"":370346},{""key"":""1"",""event"":""keydown"",""t"":376952},{""key"":""1"",""event"":""keyup"",""t"":377094},{""key"":""5"",""event"":""keydown"",""t"":382054},{""key"":""5"",""event"":""keyup"",""t"":382153},{""key"":""1"",""event"":""keydown"",""t"":383078},{""key"":""1"",""event"":""keyup"",""t"":383207},{""key"":""5"",""event"":""keydown"",""t"":383411},{""key"":""5"",""event"":""keyup"",""t"":383547},{""key"":""2"",""event"":""keydown"",""t"":383855},{""key"":""2"",""event"":""keyup"",""t"":383982},{""key"":""1"",""event"":""keydown"",""t"":386613},{""key"":""1"",""event"":""keyup"",""t"":386715},{""key"":""5"",""event"":""keydown"",""t"":393466},{""key"":""5"",""event"":""keyup"",""t"":393595},{""key"":""1"",""event"":""keydown"",""t"":395786},{""key"":""1"",""event"":""keyup"",""t"":395894},{""key"":""1"",""event"":""keydown"",""t"":396304},{""key"":""1"",""event"":""keyup"",""t"":396399},{""key"":""1"",""event"":""keydown"",""t"":398315},{""key"":""1"",""event"":""keyup"",""t"":398447},{""key"":""5"",""event"":""keydown"",""t"":399151},{""key"":""5"",""event"":""keyup"",""t"":399262},{""key"":""5"",""event"":""keydown"",""t"":412177},{""key"":""5"",""event"":""keyup"",""t"":412304},{""key"":""1"",""event"":""keydown"",""t"":413160},{""key"":""1"",""event"":""keyup"",""t"":413265},{""key"":""5"",""event"":""keydown"",""t"":414460},{""key"":""5"",""event"":""keyup"",""t"":414559},{""key"":""1"",""event"":""keydown"",""t"":415414},{""key"":""1"",""event"":""keyup"",""t"":415501},{""key"":""5"",""event"":""keydown"",""t"":420991},{""key"":""5"",""event"":""keyup"",""t"":421072},{""key"":""1"",""event"":""keydown"",""t"":422033},{""key"":""1"",""event"":""keyup"",""t"":422130},{""key"":""5"",""event"":""keydown"",""t"":423551},{""key"":""5"",""event"":""keyup"",""t"":423660},{""key"":""5"",""event"":""keydown"",""t"":425708},{""key"":""5"",""event"":""keyup"",""t"":425822},{""key"":""5"",""event"":""keydown"",""t"":426829},{""key"":""5"",""event"":""keyup"",""t"":426936},{""key"":""1"",""event"":""keydown"",""t"":427731},{""key"":""1"",""event"":""keyup"",""t"":427836},{""key"":""5"",""event"":""keydown"",""t"":428269},{""key"":""5"",""event"":""keyup"",""t"":428370},{""key"":""5"",""event"":""keydown"",""t"":428842},{""key"":""5"",""event"":""keyup"",""t"":428946},{""key"":""1"",""event"":""keydown"",""t"":429099},{""key"":""1"",""event"":""keyup"",""t"":429214},{""key"":""5"",""event"":""keydown"",""t"":429695},{""key"":""5"",""event"":""keyup"",""t"":429793},{""key"":""5"",""event"":""keydown"",""t"":431369},{""key"":""5"",""event"":""keyup"",""t"":431467},{""key"":""5"",""event"":""keydown"",""t"":434790},{""key"":""5"",""event"":""keyup"",""t"":434940},{""key"":""5"",""event"":""keydown"",""t"":435652},{""key"":""5"",""event"":""keyup"",""t"":435797},{""key"":""1"",""event"":""keydown"",""t"":441988},{""key"":""1"",""event"":""keyup"",""t"":442078},{""key"":""5"",""event"":""keydown"",""t"":442173},{""key"":""5"",""event"":""keyup"",""t"":442240},{""key"":""5"",""event"":""keydown"",""t"":442276},{""key"":""5"",""event"":""keyup"",""t"":442367},{""key"":""2"",""event"":""keydown"",""t"":444204},{""key"":""2"",""event"":""keyup"",""t"":444362},{""key"":""5"",""event"":""keydown"",""t"":444550},{""key"":""5"",""event"":""keyup"",""t"":444687},{""key"":""2"",""event"":""keydown"",""t"":445215},{""key"":""2"",""event"":""keyup"",""t"":445315},{""key"":""2"",""event"":""keydown"",""t"":445734},{""key"":""2"",""event"":""keyup"",""t"":445856},{""key"":""2"",""event"":""keydown"",""t"":446102},{""key"":""2"",""event"":""keyup"",""t"":446221},{""key"":""5"",""event"":""keydown"",""t"":448813},{""key"":""5"",""event"":""keyup"",""t"":448925},{""key"":""1"",""event"":""keydown"",""t"":449094},{""key"":""1"",""event"":""keyup"",""t"":449206},{""key"":""2"",""event"":""keydown"",""t"":452624},{""key"":""2"",""event"":""keyup"",""t"":452733},{""key"":""2"",""event"":""keydown"",""t"":453560},{""key"":""2"",""event"":""keyup"",""t"":453712},{""key"":""1"",""event"":""keydown"",""t"":454330},{""key"":""1"",""event"":""keyup"",""t"":454438},{""key"":""Meta"",""event"":""keydown"",""t"":458321},{""key"":""Shift"",""event"":""keydown"",""t"":458331},{""key"":""Shift"",""event"":""keyup"",""t"":458457},{""key"":""Meta"",""event"":""keyup"",""t"":458458},{""key"":""s"",""event"":""keyup"",""t"":458490},{""key"":""2"",""event"":""keydown"",""t"":527565},{""key"":""2"",""event"":""keyup"",""t"":527658},{""key"":""5"",""event"":""keydown"",""t"":528145},{""key"":""5"",""event"":""keyup"",""t"":528231},{""key"":""1"",""event"":""keydown"",""t"":529053},{""key"":""1"",""event"":""keyup"",""t"":529144},{""key"":""1"",""event"":""keydown"",""t"":543894},{""key"":""1"",""event"":""keyup"",""t"":544015},{""key"":""2"",""event"":""keydown"",""t"":551347},{""key"":""2"",""event"":""keyup"",""t"":551475},{""key"":""5"",""event"":""keydown"",""t"":552348},{""key"":""5"",""event"":""keyup"",""t"":552461},{""key"":""2"",""event"":""keydown"",""t"":553078},{""key"":""2"",""event"":""keyup"",""t"":553186},{""key"":""1"",""event"":""keydown"",""t"":553857},{""key"":""1"",""event"":""keyup"",""t"":553949},{""key"":""5"",""event"":""keydown"",""t"":561177},{""key"":""5"",""event"":""keyup"",""t"":561301},{""key"":""Meta"",""event"":""keydown"",""t"":562247},{""key"":""Shift"",""event"":""keydown"",""t"":562285},{""key"":""Shift"",""event"":""keydown"",""t"":562534},{""key"":""Shift"",""event"":""keydown"",""t"":562567},{""key"":""Shift"",""event"":""keydown"",""t"":562601},{""key"":""Shift"",""event"":""keydown"",""t"":562633},{""key"":""Shift"",""event"":""keydown"",""t"":562667},{""key"":""Shift"",""event"":""keydown"",""t"":562699},{""key"":""Shift"",""event"":""keydown"",""t"":562733},{""key"":""Shift"",""event"":""keydown"",""t"":562765},{""key"":""Shift"",""event"":""keydown"",""t"":562798},{""key"":""Shift"",""event"":""keydown"",""t"":562831},{""key"":""Shift"",""event"":""keydown"",""t"":562864},{""key"":""Shift"",""event"":""keydown"",""t"":562897},{""key"":""Shift"",""event"":""keydown"",""t"":562930},{""key"":""Shift"",""event"":""keydown"",""t"":562964},{""key"":""Shift"",""event"":""keydown"",""t"":562997},{""key"":""Shift"",""event"":""keydown"",""t"":563030},{""key"":""Shift"",""event"":""keydown"",""t"":563063},{""key"":""Shift"",""event"":""keydown"",""t"":563096},{""key"":""Shift"",""event"":""keydown"",""t"":563129},{""key"":""Shift"",""event"":""keydown"",""t"":563161},{""key"":""Shift"",""event"":""keydown"",""t"":563194},{""key"":""Shift"",""event"":""keydown"",""t"":563227},{""key"":""Shift"",""event"":""keydown"",""t"":563261},{""key"":""Shift"",""event"":""keydown"",""t"":563293},{""key"":""Shift"",""event"":""keydown"",""t"":563326},{""key"":""Shift"",""event"":""keydown"",""t"":563359},{""key"":""Shift"",""event"":""keyup"",""t"":563388},{""key"":""5"",""event"":""keydown"",""t"":634712},{""key"":""5"",""event"":""keyup"",""t"":634770},{""key"":""2"",""event"":""keydown"",""t"":635094},{""key"":""2"",""event"":""keyup"",""t"":635186},{""key"":""5"",""event"":""keydown"",""t"":637005},{""key"":""5"",""event"":""keyup"",""t"":637058},{""key"":""1"",""event"":""keydown"",""t"":664268},{""key"":""1"",""event"":""keyup"",""t"":664377},{""key"":""2"",""event"":""keydown"",""t"":665645},{""key"":""2"",""event"":""keyup"",""t"":665719},{""key"":""1"",""event"":""keydown"",""t"":671371},{""key"":""1"",""event"":""keyup"",""t"":671481},{""key"":""2"",""event"":""keydown"",""t"":677566},{""key"":""2"",""event"":""keyup"",""t"":677696},{""key"":""1"",""event"":""keydown"",""t"":678667},{""key"":""1"",""event"":""keyup"",""t"":678800},{""key"":""2"",""event"":""keydown"",""t"":679162},{""key"":""2"",""event"":""keyup"",""t"":679295},{""key"":""1"",""event"":""keydown"",""t"":679638},{""key"":""1"",""event"":""keyup"",""t"":679737},{""key"":""2"",""event"":""keydown"",""t"":686806},{""key"":""2"",""event"":""keyup"",""t"":686893},{""key"":""1"",""event"":""keydown"",""t"":687101},{""key"":""1"",""event"":""keyup"",""t"":687189},{""key"":""2"",""event"":""keydown"",""t"":687920},{""key"":""2"",""event"":""keyup"",""t"":688007},{""key"":""1"",""event"":""keydown"",""t"":712606},{""key"":""1"",""event"":""keyup"",""t"":712685},{""key"":""5"",""event"":""keydown"",""t"":718337},{""key"":""5"",""event"":""keyup"",""t"":718420},{""key"":""1"",""event"":""keydown"",""t"":719972},{""key"":""1"",""event"":""keyup"",""t"":720065},{""key"":""2"",""event"":""keydown"",""t"":721875},{""key"":""2"",""event"":""keyup"",""t"":721999},{""key"":""1"",""event"":""keydown"",""t"":722698},{""key"":""1"",""event"":""keyup"",""t"":722815},{""key"":""1"",""event"":""keydown"",""t"":730443},{""key"":""1"",""event"":""keyup"",""t"":730545},{""key"":""1"",""event"":""keydown"",""t"":741824},{""key"":""1"",""event"":""keyup"",""t"":741936},{""key"":""1"",""event"":""keydown"",""t"":743802},{""key"":""1"",""event"":""keyup"",""t"":743935},{""key"":""1"",""event"":""keydown"",""t"":744437},{""key"":""1"",""event"":""keyup"",""t"":744555},{""key"":""1"",""event"":""keydown"",""t"":744903},{""key"":""1"",""event"":""keyup"",""t"":745028},{""key"":""2"",""event"":""keydown"",""t"":749019},{""key"":""2"",""event"":""keyup"",""t"":749139},{""key"":""1"",""event"":""keydown"",""t"":749794},{""key"":""1"",""event"":""keyup"",""t"":749922},{""key"":""1"",""event"":""keydown"",""t"":750885},{""key"":""1"",""event"":""keyup"",""t"":751085},{""key"":""1"",""event"":""keydown"",""t"":753803},{""key"":""1"",""event"":""keyup"",""t"":753971},{""key"":""Shift"",""event"":""keydown"",""t"":770450},{""key"":""Meta"",""event"":""keydown"",""t"":770461},{""key"":""Meta"",""event"":""keydown"",""t"":770710},{""key"":""Meta"",""event"":""keydown"",""t"":770743},{""key"":""Meta"",""event"":""keydown"",""t"":770777},{""key"":""Meta"",""event"":""keydown"",""t"":770809},{""key"":""Meta"",""event"":""keydown"",""t"":770842},{""key"":""Meta"",""event"":""keydown"",""t"":770875},{""key"":""Meta"",""event"":""keydown"",""t"":770909},{""key"":""S"",""event"":""keyup"",""t"":771010},{""key"":""Shift"",""event"":""keyup"",""t"":771011},{""key"":""Meta"",""event"":""keyup"",""t"":771026},{""key"":""Meta"",""event"":""keydown"",""t"":772577},{""key"":""Meta"",""event"":""keyup"",""t"":772673},{""key"":""Alt"",""event"":""keydown"",""t"":776627},{""key"":""Alt"",""event"":""keydown"",""t"":789218},{""key"":""1"",""event"":""keydown"",""t"":806974},{""key"":""1"",""event"":""keyup"",""t"":807060},{""key"":""5"",""event"":""keydown"",""t"":819076},{""key"":""5"",""event"":""keyup"",""t"":819171},{""key"":""2"",""event"":""keydown"",""t"":819478},{""key"":""2"",""event"":""keyup"",""t"":819584},{""key"":""1"",""event"":""keydown"",""t"":819744},{""key"":""1"",""event"":""keyup"",""t"":819827},{""key"":""1"",""event"":""keydown"",""t"":820528},{""key"":""1"",""event"":""keyup"",""t"":820623},{""key"":""2"",""event"":""keydown"",""t"":824216},{""key"":""2"",""event"":""keyup"",""t"":824298},{""key"":""1"",""event"":""keydown"",""t"":850829},{""key"":""1"",""event"":""keyup"",""t"":850945},{""key"":""5"",""event"":""keydown"",""t"":864492},{""key"":""5"",""event"":""keyup"",""t"":864592},{""key"":""1"",""event"":""keydown"",""t"":866623},{""key"":""1"",""event"":""keyup"",""t"":866726},{""key"":""5"",""event"":""keydown"",""t"":871104},{""key"":""5"",""event"":""keyup"",""t"":871207},{""key"":""1"",""event"":""keydown"",""t"":872001},{""key"":""1"",""event"":""keyup"",""t"":872103},{""key"":""2"",""event"":""keydown"",""t"":881829},{""key"":""2"",""event"":""keyup"",""t"":881962},{""key"":""1"",""event"":""keydown"",""t"":882771},{""key"":""1"",""event"":""keyup"",""t"":882841},{""key"":""1"",""event"":""keydown"",""t"":883869},{""key"":""1"",""event"":""keyup"",""t"":883987},{""key"":""5"",""event"":""keydown"",""t"":894905},{""key"":""5"",""event"":""keyup"",""t"":895028},{""key"":""1"",""event"":""keydown"",""t"":907556},{""key"":""1"",""event"":""keyup"",""t"":907693},{""key"":""1"",""event"":""keydown"",""t"":913954},{""key"":""1"",""event"":""keyup"",""t"":914060},{""key"":""5"",""event"":""keydown"",""t"":946658},{""key"":""5"",""event"":""keyup"",""t"":946763},{""key"":""1"",""event"":""keydown"",""t"":947077},{""key"":""1"",""event"":""keyup"",""t"":947160},{""key"":""5"",""event"":""keydown"",""t"":948678},{""key"":""5"",""event"":""keyup"",""t"":948805},{""key"":""5"",""event"":""keydown"",""t"":950103},{""key"":""5"",""event"":""keyup"",""t"":950261},{""key"":""1"",""event"":""keydown"",""t"":951350},{""key"":""1"",""event"":""keyup"",""t"":951457},{""key"":""2"",""event"":""keydown"",""t"":952804},{""key"":""2"",""event"":""keyup"",""t"":952941},{""key"":""1"",""event"":""keydown"",""t"":953254},{""key"":""1"",""event"":""keyup"",""t"":953345},{""key"":""5"",""event"":""keydown"",""t"":961384},{""key"":""5"",""event"":""keyup"",""t"":961489},{""key"":""5"",""event"":""keydown"",""t"":980775},{""key"":""5"",""event"":""keyup"",""t"":980881},{""key"":""1"",""event"":""keydown"",""t"":982296},{""key"":""1"",""event"":""keyup"",""t"":982377},{""key"":""1"",""event"":""keydown"",""t"":987889},{""key"":""1"",""event"":""keyup"",""t"":987974},{""key"":""5"",""event"":""keydown"",""t"":988524},{""key"":""5"",""event"":""keyup"",""t"":988646},{""key"":""1"",""event"":""keydown"",""t"":994363},{""key"":""1"",""event"":""keyup"",""t"":994476}]","[]"
"266334","","{""creativity-rating"":4,""creativity-free-response"":""I've seen a game like this first time. The conception and mechanics were interesting. I like games where you need to think a little bit, when I lost I wasn't frustrated I was thinking how can I fix that to finally get those purple balls."",""originality-rating"":5,""originality-free-response"":""I feel like this game is original because I've never seen those game mechanics."",""effectiveness-rating"":4,""effectiveness-free-response"":""I had to think, I was losing but I wasn't frustrated. This game was created really well and I can't tell which part was enjoyable, because I enjoyed whole game."",""authenticity-rating"":5,""attention-check"":3,""intentionality-rating"":3,""authenticity-intentionality-free-response"":""I feel it's authentic because this game mechanics are for me something new. When it comes to developers effort I give 3 for game idea, but I don't really like 2D games with graphics like that, so the dev doesn't really put the effort into graphics.""}","evaluation-chat-6-tidepainter","survey","8","1740764","0.0-8.0","698dfb569c22eca3eb8b65fa","6987c292780adf01bb926159","69a61e4924cc30e3e6cb442b","","","","","","",""
"31495","","{""concept-creativity-rating"":3,""concept-implementation-rating"":4,""question1"":null}","concept-chat-6-tidepainter","survey","9","1772272","0.0-9.0","698dfb569c22eca3eb8b65fa","6987c292780adf01bb926159","69a61e4924cc30e3e6cb442b","","","","","","",""
"2923","You have completed your evaluation of the second video game.<br><br>Press any key to proceed to the final game."," ","pre-game-three-message","html-keyboard-response","10","1775195","0.0-10.0","698dfb569c22eca3eb8b65fa","6987c292780adf01bb926159","69a61e4924cc30e3e6cb442b","","","","","","",""
"33331","","","game-gemini-5-rename","plugin-game-iframe","11","1808530","0.0-11.0","698dfb569c22eca3eb8b65fa","6987c292780adf01bb926159","69a61e4924cc30e3e6cb442b","game-complete","exit-distance 623","{""stage"":""exit-distance 623"",""detail"":{""wallZipExtension"":"".ghost"",""hazardExtension"":"".fire"",""playerBurning"":false,""isTyping"":false,""distanceToExit"":623}}","{""result"":""win""}","null","[{""key"":"" "",""event"":""keyup"",""t"":81},{""key"":""ArrowUp"",""event"":""keydown"",""t"":3161},{""key"":""ArrowUp"",""event"":""keydown"",""t"":3410},{""key"":""ArrowUp"",""event"":""keydown"",""t"":3443},{""key"":""ArrowUp"",""event"":""keydown"",""t"":3476},{""key"":""ArrowUp"",""event"":""keyup"",""t"":3480},{""key"":""ArrowRight"",""event"":""keydown"",""t"":3648},{""key"":""ArrowRight"",""event"":""keydown"",""t"":3898},{""key"":""ArrowRight"",""event"":""keydown"",""t"":3931},{""key"":""ArrowRight"",""event"":""keydown"",""t"":3964},{""key"":""ArrowRight"",""event"":""keyup"",""t"":3969},{""key"":""ArrowRight"",""event"":""keydown"",""t"":4751},{""key"":""ArrowUp"",""event"":""keydown"",""t"":4810},{""key"":""ArrowUp"",""event"":""keydown"",""t"":5060},{""key"":""ArrowUp"",""event"":""keydown"",""t"":5093},{""key"":""ArrowUp"",""event"":""keydown"",""t"":5131},{""key"":""ArrowUp"",""event"":""keydown"",""t"":5159},{""key"":""ArrowUp"",""event"":""keydown"",""t"":5192},{""key"":""ArrowUp"",""event"":""keydown"",""t"":5225},{""key"":""ArrowUp"",""event"":""keydown"",""t"":5258},{""key"":""ArrowUp"",""event"":""keydown"",""t"":5291},{""key"":""ArrowUp"",""event"":""keydown"",""t"":5324},{""key"":""ArrowUp"",""event"":""keydown"",""t"":5357},{""key"":""ArrowUp"",""event"":""keydown"",""t"":5390},{""key"":""ArrowUp"",""event"":""keydown"",""t"":5423},{""key"":""ArrowUp"",""event"":""keydown"",""t"":5457},{""key"":""ArrowUp"",""event"":""keydown"",""t"":5489},{""key"":""ArrowUp"",""event"":""keydown"",""t"":5522},{""key"":""ArrowUp"",""event"":""keydown"",""t"":5555},{""key"":""ArrowUp"",""event"":""keydown"",""t"":5589},{""key"":""ArrowUp"",""event"":""keydown"",""t"":5622},{""key"":""ArrowUp"",""event"":""keydown"",""t"":5655},{""key"":""ArrowUp"",""event"":""keydown"",""t"":5687},{""key"":""ArrowUp"",""event"":""keydown"",""t"":5721},{""key"":""ArrowUp"",""event"":""keydown"",""t"":5754},{""key"":""ArrowUp"",""event"":""keydown"",""t"":5787},{""key"":""ArrowUp"",""event"":""keydown"",""t"":5820},{""key"":""ArrowUp"",""event"":""keydown"",""t"":5853},{""key"":""ArrowUp"",""event"":""keydown"",""t"":5885},{""key"":""ArrowUp"",""event"":""keydown"",""t"":5918},{""key"":""ArrowUp"",""event"":""keydown"",""t"":5951},{""key"":""ArrowUp"",""event"":""keydown"",""t"":5984},{""key"":""ArrowUp"",""event"":""keydown"",""t"":6017},{""key"":""ArrowUp"",""event"":""keydown"",""t"":6050},{""key"":""ArrowUp"",""event"":""keydown"",""t"":6083},{""key"":""ArrowUp"",""event"":""keydown"",""t"":6116},{""key"":""ArrowUp"",""event"":""keydown"",""t"":6149},{""key"":""ArrowUp"",""event"":""keydown"",""t"":6182},{""key"":""ArrowUp"",""event"":""keydown"",""t"":6216},{""key"":""ArrowUp"",""event"":""keydown"",""t"":6249},{""key"":""ArrowUp"",""event"":""keydown"",""t"":6282},{""key"":""ArrowUp"",""event"":""keydown"",""t"":6315},{""key"":""ArrowUp"",""event"":""keydown"",""t"":6348},{""key"":""ArrowUp"",""event"":""keydown"",""t"":6381},{""key"":""ArrowUp"",""event"":""keydown"",""t"":6413},{""key"":""ArrowUp"",""event"":""keydown"",""t"":6447},{""key"":""ArrowUp"",""event"":""keydown"",""t"":6479},{""key"":""ArrowUp"",""event"":""keydown"",""t"":6513},{""key"":""ArrowUp"",""event"":""keydown"",""t"":6545},{""key"":""ArrowUp"",""event"":""keydown"",""t"":6579},{""key"":""ArrowUp"",""event"":""keydown"",""t"":6611},{""key"":""ArrowRight"",""event"":""keyup"",""t"":6633},{""key"":""ArrowUp"",""event"":""keyup"",""t"":6654},{""key"":""ArrowLeft"",""event"":""keydown"",""t"":6979},{""key"":""ArrowUp"",""event"":""keydown"",""t"":7090},{""key"":""ArrowUp"",""event"":""keyup"",""t"":7267},{""key"":""ArrowLeft"",""event"":""keyup"",""t"":7329},{""key"":""ArrowLeft"",""event"":""keydown"",""t"":7582},{""key"":""ArrowLeft"",""event"":""keyup"",""t"":7781},{""key"":""ArrowRight"",""event"":""keydown"",""t"":13035},{""key"":""ArrowRight"",""event"":""keyup"",""t"":13150},{""key"":""Control"",""event"":""keydown"",""t"":13251},{""key"":""Backspace"",""event"":""keydown"",""t"":13347},{""key"":""Backspace"",""event"":""keyup"",""t"":13426},{""key"":""Control"",""event"":""keyup"",""t"":13457},{""key"":""g"",""event"":""keydown"",""t"":13539},{""key"":""g"",""event"":""keyup"",""t"":13605},{""key"":""h"",""event"":""keydown"",""t"":13679},{""key"":""o"",""event"":""keydown"",""t"":13754},{""key"":""h"",""event"":""keyup"",""t"":13760},{""key"":""o"",""event"":""keyup"",""t"":13825},{""key"":""s"",""event"":""keydown"",""t"":13859},{""key"":""t"",""event"":""keydown"",""t"":13916},{""key"":""s"",""event"":""keyup"",""t"":13957},{""key"":""t"",""event"":""keyup"",""t"":13998},{""key"":""Enter"",""event"":""keydown"",""t"":14077},{""key"":""Enter"",""event"":""keyup"",""t"":14152},{""key"":""ArrowRight"",""event"":""keydown"",""t"":15156},{""key"":""ArrowRight"",""event"":""keyup"",""t"":15301},{""key"":""Enter"",""event"":""keydown"",""t"":15995},{""key"":""Enter"",""event"":""keyup"",""t"":16095},{""key"":""ArrowRight"",""event"":""keydown"",""t"":16364},{""key"":""ArrowRight"",""event"":""keydown"",""t"":16615},{""key"":""ArrowRight"",""event"":""keydown"",""t"":16647},{""key"":""ArrowRight"",""event"":""keydown"",""t"":16681},{""key"":""ArrowRight"",""event"":""keydown"",""t"":16714},{""key"":""ArrowRight"",""event"":""keydown"",""t"":16747},{""key"":""ArrowRight"",""event"":""keydown"",""t"":16780},{""key"":""ArrowUp"",""event"":""keydown"",""t"":16812},{""key"":""ArrowUp"",""event"":""keydown"",""t"":17063},{""key"":""ArrowUp"",""event"":""keydown"",""t"":17096},{""key"":""ArrowUp"",""event"":""keydown"",""t"":17129},{""key"":""ArrowUp"",""event"":""keydown"",""t"":17162},{""key"":""ArrowUp"",""event"":""keydown"",""t"":17195},{""key"":""ArrowUp"",""event"":""keydown"",""t"":17227},{""key"":""ArrowUp"",""event"":""keydown"",""t"":17260},{""key"":""ArrowUp"",""event"":""keydown"",""t"":17293},{""key"":""ArrowUp"",""event"":""keydown"",""t"":17326},{""key"":""ArrowUp"",""event"":""keydown"",""t"":17360},{""key"":""ArrowUp"",""event"":""keydown"",""t"":17393},{""key"":""ArrowUp"",""event"":""keydown"",""t"":17426},{""key"":""ArrowUp"",""event"":""keydown"",""t"":17458},{""key"":""ArrowUp"",""event"":""keydown"",""t"":17492},{""key"":""ArrowUp"",""event"":""keydown"",""t"":17524},{""key"":""ArrowUp"",""event"":""keydown"",""t"":17558},{""key"":""ArrowUp"",""event"":""keydown"",""t"":17590},{""key"":""ArrowUp"",""event"":""keydown"",""t"":17623},{""key"":""ArrowUp"",""event"":""keydown"",""t"":17656},{""key"":""ArrowUp"",""event"":""keydown"",""t"":17689},{""key"":""ArrowUp"",""event"":""keydown"",""t"":17723},{""key"":""ArrowUp"",""event"":""keydown"",""t"":17756},{""key"":""ArrowUp"",""event"":""keydown"",""t"":17788},{""key"":""ArrowUp"",""event"":""keydown"",""t"":17822},{""key"":""ArrowUp"",""event"":""keydown"",""t"":17854},{""key"":""ArrowUp"",""event"":""keydown"",""t"":17888},{""key"":""ArrowUp"",""event"":""keydown"",""t"":17921},{""key"":""ArrowUp"",""event"":""keydown"",""t"":17954},{""key"":""ArrowUp"",""event"":""keydown"",""t"":17987},{""key"":""ArrowUp"",""event"":""keydown"",""t"":18020},{""key"":""ArrowUp"",""event"":""keydown"",""t"":18052},{""key"":""ArrowUp"",""event"":""keydown"",""t"":18085},{""key"":""ArrowUp"",""event"":""keydown"",""t"":18118},{""key"":""ArrowUp"",""event"":""keydown"",""t"":18151},{""key"":""ArrowUp"",""event"":""keydown"",""t"":18184},{""key"":""ArrowUp"",""event"":""keydown"",""t"":18218},{""key"":""ArrowUp"",""event"":""keydown"",""t"":18250},{""key"":""ArrowUp"",""event"":""keydown"",""t"":18283},{""key"":""ArrowUp"",""event"":""keydown"",""t"":18316},{""key"":""ArrowUp"",""event"":""keydown"",""t"":18349},{""key"":""ArrowUp"",""event"":""keydown"",""t"":18382},{""key"":""ArrowUp"",""event"":""keydown"",""t"":18415},{""key"":""ArrowUp"",""event"":""keydown"",""t"":18448},{""key"":""ArrowUp"",""event"":""keydown"",""t"":18481},{""key"":""ArrowUp"",""event"":""keydown"",""t"":18514},{""key"":""ArrowUp"",""event"":""keydown"",""t"":18547},{""key"":""ArrowUp"",""event"":""keydown"",""t"":18581},{""key"":""ArrowUp"",""event"":""keydown"",""t"":18613},{""key"":""ArrowUp"",""event"":""keydown"",""t"":18646},{""key"":""ArrowUp"",""event"":""keydown"",""t"":18680},{""key"":""ArrowUp"",""event"":""keydown"",""t"":18713},{""key"":""ArrowUp"",""event"":""keydown"",""t"":18746},{""key"":""ArrowUp"",""event"":""keydown"",""t"":18779},{""key"":""ArrowUp"",""event"":""keydown"",""t"":18812},{""key"":""ArrowUp"",""event"":""keydown"",""t"":18845},{""key"":""ArrowUp"",""event"":""keydown"",""t"":18878},{""key"":""ArrowUp"",""event"":""keydown"",""t"":18911},{""key"":""ArrowUp"",""event"":""keydown"",""t"":18944},{""key"":""ArrowUp"",""event"":""keydown"",""t"":18977},{""key"":""ArrowUp"",""event"":""keyup"",""t"":19009},{""key"":""ArrowRight"",""event"":""keyup"",""t"":19080},{""key"":""ArrowRight"",""event"":""keydown"",""t"":19414},{""key"":""ArrowRight"",""event"":""keydown"",""t"":19664},{""key"":""ArrowRight"",""event"":""keyup"",""t"":19666},{""key"":""ArrowRight"",""event"":""keydown"",""t"":19679},{""key"":""ArrowRight"",""event"":""keyup"",""t"":19701},{""key"":""ArrowUp"",""event"":""keydown"",""t"":22176},{""key"":""ArrowUp"",""event"":""keyup"",""t"":22263},{""key"":""ArrowLeft"",""event"":""keydown"",""t"":24780},{""key"":""ArrowLeft"",""event"":""keyup"",""t"":25002},{""key"":""ArrowLeft"",""event"":""keydown"",""t"":25114},{""key"":""ArrowLeft"",""event"":""keydown"",""t"":25364},{""key"":""ArrowLeft"",""event"":""keydown"",""t"":25398},{""key"":""ArrowLeft"",""event"":""keydown"",""t"":25431},{""key"":""ArrowLeft"",""event"":""keydown"",""t"":25464},{""key"":""ArrowLeft"",""event"":""keydown"",""t"":25496},{""key"":""ArrowLeft"",""event"":""keydown"",""t"":25529},{""key"":""ArrowLeft"",""event"":""keyup"",""t"":25551},{""key"":""Control"",""event"":""keydown"",""t"":26650},{""key"":""Backspace"",""event"":""keydown"",""t"":26793},{""key"":""Backspace"",""event"":""keyup"",""t"":26885},{""key"":""Control"",""event"":""keyup"",""t"":26909},{""key"":""g"",""event"":""keydown"",""t"":27044},{""key"":""g"",""event"":""keyup"",""t"":27134},{""key"":""h"",""event"":""keydown"",""t"":27233},{""key"":""h"",""event"":""keyup"",""t"":27331},{""key"":""o"",""event"":""keydown"",""t"":27363},{""key"":""o"",""event"":""keyup"",""t"":27385},{""key"":""s"",""event"":""keydown"",""t"":27683},{""key"":""t"",""event"":""keydown"",""t"":27721},{""key"":""s"",""event"":""keyup"",""t"":27770},{""key"":""t"",""event"":""keyup"",""t"":27805},{""key"":""Enter"",""event"":""keydown"",""t"":27851},{""key"":""Enter"",""event"":""keyup"",""t"":27920},{""key"":""ArrowRight"",""event"":""keydown"",""t"":28380},{""key"":""ArrowRight"",""event"":""keydown"",""t"":28631},{""key"":""ArrowRight"",""event"":""keydown"",""t"":28663},{""key"":""ArrowRight"",""event"":""keydown"",""t"":28696},{""key"":""ArrowRight"",""event"":""keydown"",""t"":28729},{""key"":""ArrowRight"",""event"":""keydown"",""t"":28762},{""key"":""ArrowRight"",""event"":""keydown"",""t"":28794},{""key"":""ArrowRight"",""event"":""keydown"",""t"":28828},{""key"":""ArrowRight"",""event"":""keydown"",""t"":28861},{""key"":""ArrowRight"",""event"":""keydown"",""t"":28895},{""key"":""ArrowRight"",""event"":""keydown"",""t"":28927},{""key"":""ArrowRight"",""event"":""keydown"",""t"":28960},{""key"":""ArrowRight"",""event"":""keydown"",""t"":28993},{""key"":""ArrowRight"",""event"":""keydown"",""t"":29027},{""key"":""ArrowRight"",""event"":""keydown"",""t"":29059},{""key"":""ArrowRight"",""event"":""keydown"",""t"":29092},{""key"":""ArrowRight"",""event"":""keydown"",""t"":29126},{""key"":""ArrowRight"",""event"":""keydown"",""t"":29158},{""key"":""ArrowUp"",""event"":""keydown"",""t"":29162},{""key"":""ArrowUp"",""event"":""keyup"",""t"":29365},{""key"":""ArrowRight"",""event"":""keyup"",""t"":30105},{""key"":""Enter"",""event"":""keydown"",""t"":33327}]","[]"
"244884","","{""creativity-rating"":5,""creativity-free-response"":""You can feel like some sort of a game dev. With more levels this game could be really interesting to play for like 1-2 hours."",""originality-rating"":5,""originality-free-response"":""I've never seen a game mechanic like that where you can litteraly edit the game objects yourself by renaming it, the wole idea was a surprise for me."",""effectiveness-rating"":4,""effectiveness-free-response"":""The game feels really enjoyable, because maybe not in this 1st level but if only the game were more extensive you would have to use your brain and think to pass the levels."",""authenticity-rating"":5,""attention-check"":3,""intentionality-rating"":5,""authenticity-intentionality-free-response"":""This game was extremely authentic because this game mechanic was something new and it was a brilliant idea. When it comes to effort, I think the dev put a lot of effort to get the idea for game mechanics. The graphics are also okay, I think that's how the game should be looking to have this atmosphere.""}","evaluation-gemini-5-rename","survey","12","2053433","0.0-12.0","698dfb569c22eca3eb8b65fa","6987c292780adf01bb926159","69a61e4924cc30e3e6cb442b","","","","","","",""
"14500","","{""concept-creativity-rating"":5,""concept-implementation-rating"":5,""question1"":null}","concept-gemini-5-rename","survey","13","2067946","0.0-13.0","698dfb569c22eca3eb8b65fa","6987c292780adf01bb926159","69a61e4924cc30e3e6cb442b","","","","","","",""
"2417","You have completed all of the games!<br><br>Press any key to proceed to some final questions before returning to Prolific."," ","pre-baseline-questions","html-keyboard-response","14","2070364","0.0-14.0","698dfb569c22eca3eb8b65fa","6987c292780adf01bb926159","69a61e4924cc30e3e6cb442b","","","","","","",""
"26516","","{""baseline_originality_rating"":4,""baseline_effectiveness_rating"":4,""baseline_authenticity_rating"":3,""baseline_intentionality_rating"":3}","baseline-questions-rating","survey","15","2096891","0.0-15.0","698dfb569c22eca3eb8b65fa","6987c292780adf01bb926159","69a61e4924cc30e3e6cb442b","","","","","","",""
"37030","","{""ai_blind_question"":""No, I felt like every of this game was vibe coded and it's ok.""}","ai-blind-question","survey","16","2133926","0.0-16.0","698dfb569c22eca3eb8b65fa","6987c292780adf01bb926159","69a61e4924cc30e3e6cb442b","","","","","","",""
"4136","
        <p> You have completed the experiment! Press any key to save your data and get redirected back to Prolific. <strong>Please do not close the page until you have been redirected to Prolific.</strong> <p>
      "," ","goodbye","html-keyboard-response","17","2138063","0.0-17.0","698dfb569c22eca3eb8b65fa","6987c292780adf01bb926159","69a61e4924cc30e3e6cb442b","","","","","","",""
