"rt","stimulus","response","phase","trial_type","trial_index","time_elapsed","internal_node_id","prolific_subject_id","study_id","session_id","exit_reason","exit_stage","exit_progress","game_data","emergency_text","keystrokes","mouse_events"
"8631","Welcome! In this study, you will play three short video games, completing a short survey after each game.<br><br>Please make sure you are in a quiet environment where you can focus for the duration of the study. Some games may use sound, so please ensure that your device's volume is not muted.<br><br>Press any key to begin.","d","welcome-message","html-keyboard-response","0","8638","0.0-0.0","698efa571f78c2fb8bc759fc","6987c292780adf01bb926159","69a4faebeb0004f19e55a7af","","","","","","",""
"9505","","{""commitment-check"":[""yes""]}","commitment-check","survey","1","18163","0.0-1.0","698efa571f78c2fb8bc759fc","6987c292780adf01bb926159","69a4faebeb0004f19e55a7af","","","","","","",""
"3231","Press any key to proceed to the first video game. Should you encounter a game-breaking bug, please report the issue in the Menu tab to the right of the screen.","d","pre-game-one-message","html-keyboard-response","2","21396","0.0-2.0","698efa571f78c2fb8bc759fc","6987c292780adf01bb926159","69a4faebeb0004f19e55a7af","","","","","","",""
"79770","","","game-claude-2-moth","plugin-game-iframe","3","101166","0.0-3.0","698efa571f78c2fb8bc759fc","6987c292780adf01bb926159","69a4faebeb0004f19e55a7af","game-complete","end:mixed","{""stage"":""end:mixed"",""detail"":{""endType"":""mixed"",""dependency"":0.3513550519999995,""gameTime"":62.67861999999996}}","{""result"":""win"",""endType"":""mixed"",""dependency"":0.3513550519999995,""mothsFollowing"":0}","null","[{""key"":""d"",""event"":""keyup"",""t"":136},{""key"":"" "",""event"":""keydown"",""t"":3020},{""key"":"" "",""event"":""keyup"",""t"":3188},{""key"":"" "",""event"":""keydown"",""t"":5862},{""key"":"" "",""event"":""keyup"",""t"":6146},{""key"":"" "",""event"":""keydown"",""t"":6406},{""key"":"" "",""event"":""keyup"",""t"":6533},{""key"":""s"",""event"":""keydown"",""t"":8155},{""key"":""s"",""event"":""keyup"",""t"":8600},{""key"":""d"",""event"":""keydown"",""t"":8724},{""key"":""d"",""event"":""keyup"",""t"":8943},{""key"":""d"",""event"":""keydown"",""t"":9280},{""key"":""d"",""event"":""keyup"",""t"":9475},{""key"":""a"",""event"":""keydown"",""t"":9920},{""key"":""a"",""event"":""keyup"",""t"":10086},{""key"":""ArrowLeft"",""event"":""keydown"",""t"":10251},{""key"":""ArrowLeft"",""event"":""keyup"",""t"":10448},{""key"":""ArrowRight"",""event"":""keydown"",""t"":10553},{""key"":""ArrowRight"",""event"":""keyup"",""t"":10650},{""key"":""ArrowRight"",""event"":""keydown"",""t"":10775},{""key"":""ArrowRight"",""event"":""keyup"",""t"":11083},{""key"":""ArrowDown"",""event"":""keydown"",""t"":11544},{""key"":""ArrowDown"",""event"":""keyup"",""t"":11637},{""key"":"" "",""event"":""keydown"",""t"":12185},{""key"":""ArrowRight"",""event"":""keydown"",""t"":12216},{""key"":""ArrowRight"",""event"":""keyup"",""t"":12346},{""key"":"" "",""event"":""keyup"",""t"":12505},{""key"":""ArrowLeft"",""event"":""keydown"",""t"":12572},{""key"":""ArrowLeft"",""event"":""keyup"",""t"":12771},{""key"":""ArrowRight"",""event"":""keydown"",""t"":13863},{""key"":""ArrowRight"",""event"":""keyup"",""t"":13990},{""key"":""ArrowRight"",""event"":""keydown"",""t"":14155},{""key"":""ArrowRight"",""event"":""keyup"",""t"":14376},{""key"":"" "",""event"":""keydown"",""t"":15486},{""key"":"" "",""event"":""keyup"",""t"":15700},{""key"":""ArrowLeft"",""event"":""keydown"",""t"":17471},{""key"":""ArrowLeft"",""event"":""keyup"",""t"":17580},{""key"":""ArrowLeft"",""event"":""keydown"",""t"":18341},{""key"":""ArrowLeft"",""event"":""keyup"",""t"":18502},{""key"":""ArrowLeft"",""event"":""keydown"",""t"":18842},{""key"":""ArrowLeft"",""event"":""keyup"",""t"":19006},{""key"":""ArrowRight"",""event"":""keydown"",""t"":19072},{""key"":""ArrowRight"",""event"":""keyup"",""t"":19383},{""key"":"" "",""event"":""keydown"",""t"":19478},{""key"":""ArrowRight"",""event"":""keydown"",""t"":19608},{""key"":"" "",""event"":""keyup"",""t"":19608},{""key"":""ArrowRight"",""event"":""keyup"",""t"":19676},{""key"":""ArrowLeft"",""event"":""keydown"",""t"":20633},{""key"":""ArrowLeft"",""event"":""keydown"",""t"":21140},{""key"":""ArrowLeft"",""event"":""keyup"",""t"":21200},{""key"":""ArrowLeft"",""event"":""keydown"",""t"":21641},{""key"":""ArrowLeft"",""event"":""keydown"",""t"":22136},{""key"":"" "",""event"":""keydown"",""t"":22171},{""key"":"" "",""event"":""keyup"",""t"":22371},{""key"":""ArrowLeft"",""event"":""keyup"",""t"":22741},{""key"":""ArrowRight"",""event"":""keydown"",""t"":22906},{""key"":""ArrowRight"",""event"":""keyup"",""t"":22974},{""key"":"" "",""event"":""keydown"",""t"":23424},{""key"":"" "",""event"":""keydown"",""t"":23928},{""key"":"" "",""event"":""keydown"",""t"":23958},{""key"":"" "",""event"":""keydown"",""t"":23989},{""key"":"" "",""event"":""keydown"",""t"":24022},{""key"":"" "",""event"":""keydown"",""t"":24052},{""key"":"" "",""event"":""keydown"",""t"":24084},{""key"":"" "",""event"":""keydown"",""t"":24121},{""key"":"" "",""event"":""keydown"",""t"":24151},{""key"":"" "",""event"":""keydown"",""t"":24182},{""key"":"" "",""event"":""keyup"",""t"":24215},{""key"":"" "",""event"":""keydown"",""t"":24605},{""key"":"" "",""event"":""keyup"",""t"":24836},{""key"":""ArrowRight"",""event"":""keydown"",""t"":24868},{""key"":""ArrowRight"",""event"":""keyup"",""t"":25161},{""key"":""ArrowLeft"",""event"":""keydown"",""t"":25258},{""key"":""ArrowLeft"",""event"":""keyup"",""t"":25522},{""key"":""ArrowLeft"",""event"":""keydown"",""t"":25977},{""key"":""ArrowLeft"",""event"":""keyup"",""t"":26052},{""key"":""ArrowLeft"",""event"":""keydown"",""t"":26567},{""key"":""ArrowLeft"",""event"":""keyup"",""t"":26903},{""key"":""ArrowRight"",""event"":""keydown"",""t"":27095},{""key"":"" "",""event"":""keydown"",""t"":27223},{""key"":""ArrowRight"",""event"":""keyup"",""t"":27586},{""key"":"" "",""event"":""keyup"",""t"":27681},{""key"":""ArrowRight"",""event"":""keydown"",""t"":28062},{""key"":""ArrowRight"",""event"":""keyup"",""t"":28223},{""key"":""ArrowLeft"",""event"":""keydown"",""t"":28745},{""key"":""ArrowLeft"",""event"":""keyup"",""t"":29144},{""key"":""ArrowRight"",""event"":""keydown"",""t"":29407},{""key"":""ArrowRight"",""event"":""keyup"",""t"":29611},{""key"":"" "",""event"":""keydown"",""t"":29752},{""key"":"" "",""event"":""keyup"",""t"":30263},{""key"":""ArrowLeft"",""event"":""keydown"",""t"":30296},{""key"":""ArrowLeft"",""event"":""keyup"",""t"":30364},{""key"":""ArrowRight"",""event"":""keydown"",""t"":30691},{""key"":""ArrowRight"",""event"":""keyup"",""t"":30792},{""key"":""ArrowLeft"",""event"":""keydown"",""t"":31561},{""key"":""ArrowLeft"",""event"":""keyup"",""t"":31755},{""key"":""ArrowRight"",""event"":""keydown"",""t"":32295},{""key"":""ArrowRight"",""event"":""keyup"",""t"":32401},{""key"":"" "",""event"":""keydown"",""t"":32627},{""key"":"" "",""event"":""keyup"",""t"":33086},{""key"":""ArrowLeft"",""event"":""keydown"",""t"":33307},{""key"":""ArrowLeft"",""event"":""keyup"",""t"":33495},{""key"":""ArrowLeft"",""event"":""keydown"",""t"":33686},{""key"":""ArrowLeft"",""event"":""keyup"",""t"":33791},{""key"":""ArrowRight"",""event"":""keydown"",""t"":34440},{""key"":""ArrowRight"",""event"":""keyup"",""t"":34539},{""key"":"" "",""event"":""keydown"",""t"":34804},{""key"":"" "",""event"":""keydown"",""t"":35312},{""key"":"" "",""event"":""keydown"",""t"":35380},{""key"":"" "",""event"":""keydown"",""t"":35448},{""key"":"" "",""event"":""keydown"",""t"":35484},{""key"":"" "",""event"":""keyup"",""t"":35484},{""key"":""ArrowRight"",""event"":""keydown"",""t"":35678},{""key"":""ArrowRight"",""event"":""keyup"",""t"":35909},{""key"":""ArrowRight"",""event"":""keydown"",""t"":36188},{""key"":""ArrowRight"",""event"":""keyup"",""t"":36369},{""key"":""ArrowLeft"",""event"":""keydown"",""t"":37001},{""key"":""ArrowLeft"",""event"":""keyup"",""t"":37363},{""key"":""ArrowDown"",""event"":""keydown"",""t"":37625},{""key"":""ArrowDown"",""event"":""keyup"",""t"":37891},{""key"":""ArrowLeft"",""event"":""keydown"",""t"":37891},{""key"":""ArrowLeft"",""event"":""keyup"",""t"":38065},{""key"":""ArrowRight"",""event"":""keydown"",""t"":38692},{""key"":""ArrowRight"",""event"":""keydown"",""t"":39209},{""key"":""ArrowRight"",""event"":""keydown"",""t"":39244},{""key"":""ArrowRight"",""event"":""keydown"",""t"":39275},{""key"":""ArrowRight"",""event"":""keydown"",""t"":39314},{""key"":""ArrowRight"",""event"":""keydown"",""t"":39350},{""key"":""ArrowRight"",""event"":""keydown"",""t"":39381},{""key"":""ArrowRight"",""event"":""keydown"",""t"":39413},{""key"":""ArrowRight"",""event"":""keydown"",""t"":39448},{""key"":""ArrowRight"",""event"":""keydown"",""t"":39479},{""key"":""ArrowRight"",""event"":""keydown"",""t"":39513},{""key"":""ArrowRight"",""event"":""keydown"",""t"":39547},{""key"":""ArrowRight"",""event"":""keydown"",""t"":39580},{""key"":""ArrowRight"",""event"":""keydown"",""t"":39612},{""key"":""ArrowRight"",""event"":""keydown"",""t"":39646},{""key"":"" "",""event"":""keydown"",""t"":39646},{""key"":"" "",""event"":""keyup"",""t"":39810},{""key"":""ArrowRight"",""event"":""keyup"",""t"":39876},{""key"":""ArrowLeft"",""event"":""keydown"",""t"":40348},{""key"":"" "",""event"":""keydown"",""t"":40710},{""key"":""ArrowLeft"",""event"":""keyup"",""t"":41025},{""key"":"" "",""event"":""keyup"",""t"":41087},{""key"":""ArrowRight"",""event"":""keydown"",""t"":41087},{""key"":""ArrowRight"",""event"":""keyup"",""t"":41365},{""key"":""ArrowRight"",""event"":""keydown"",""t"":41504},{""key"":""ArrowRight"",""event"":""keyup"",""t"":41666},{""key"":""ArrowLeft"",""event"":""keydown"",""t"":41957},{""key"":""ArrowLeft"",""event"":""keyup"",""t"":42235},{""key"":""ArrowLeft"",""event"":""keydown"",""t"":44832},{""key"":"" "",""event"":""keydown"",""t"":45102},{""key"":""ArrowLeft"",""event"":""keyup"",""t"":45134},{""key"":"" "",""event"":""keyup"",""t"":45363},{""key"":"" "",""event"":""keydown"",""t"":46484},{""key"":"" "",""event"":""keyup"",""t"":46918},{""key"":"" "",""event"":""keydown"",""t"":47611},{""key"":""ArrowLeft"",""event"":""keydown"",""t"":48099},{""key"":""ArrowLeft"",""event"":""keyup"",""t"":48373},{""key"":""ArrowRight"",""event"":""keydown"",""t"":49842},{""key"":"" "",""event"":""keyup"",""t"":49940},{""key"":""ArrowRight"",""event"":""keyup"",""t"":50415},{""key"":""ArrowLeft"",""event"":""keydown"",""t"":51168},{""key"":""ArrowLeft"",""event"":""keydown"",""t"":51669},{""key"":""ArrowLeft"",""event"":""keydown"",""t"":51702},{""key"":""ArrowLeft"",""event"":""keydown"",""t"":51737},{""key"":""ArrowLeft"",""event"":""keydown"",""t"":51769},{""key"":""ArrowLeft"",""event"":""keydown"",""t"":51802},{""key"":""ArrowLeft"",""event"":""keyup"",""t"":51836},{""key"":""ArrowRight"",""event"":""keydown"",""t"":51975},{""key"":""ArrowRight"",""event"":""keyup"",""t"":52315},{""key"":"" "",""event"":""keydown"",""t"":52383},{""key"":""ArrowLeft"",""event"":""keydown"",""t"":52519},{""key"":""ArrowLeft"",""event"":""keydown"",""t"":53029},{""key"":""ArrowLeft"",""event"":""keydown"",""t"":53063},{""key"":""ArrowLeft"",""event"":""keydown"",""t"":53095},{""key"":"" "",""event"":""keyup"",""t"":53095},{""key"":""ArrowLeft"",""event"":""keyup"",""t"":53404},{""key"":""ArrowRight"",""event"":""keydown"",""t"":53694},{""key"":""ArrowRight"",""event"":""keyup"",""t"":53789},{""key"":""ArrowDown"",""event"":""keydown"",""t"":54024},{""key"":""ArrowDown"",""event"":""keyup"",""t"":54284},{""key"":""ArrowRight"",""event"":""keydown"",""t"":57088},{""key"":"" "",""event"":""keydown"",""t"":57252},{""key"":""ArrowRight"",""event"":""keyup"",""t"":57285},{""key"":"" "",""event"":""keydown"",""t"":57762},{""key"":"" "",""event"":""keydown"",""t"":57827},{""key"":"" "",""event"":""keydown"",""t"":57896},{""key"":"" "",""event"":""keydown"",""t"":57964},{""key"":"" "",""event"":""keydown"",""t"":57997},{""key"":"" "",""event"":""keydown"",""t"":58031},{""key"":"" "",""event"":""keydown"",""t"":58098},{""key"":"" "",""event"":""keydown"",""t"":58137},{""key"":"" "",""event"":""keydown"",""t"":58175},{""key"":"" "",""event"":""keydown"",""t"":58209},{""key"":"" "",""event"":""keydown"",""t"":58240},{""key"":"" "",""event"":""keydown"",""t"":58275},{""key"":"" "",""event"":""keydown"",""t"":58309},{""key"":"" "",""event"":""keydown"",""t"":58341},{""key"":"" "",""event"":""keydown"",""t"":58376},{""key"":"" "",""event"":""keydown"",""t"":58408},{""key"":"" "",""event"":""keydown"",""t"":58441},{""key"":"" "",""event"":""keydown"",""t"":58475},{""key"":"" "",""event"":""keydown"",""t"":58508},{""key"":"" "",""event"":""keydown"",""t"":58541},{""key"":"" "",""event"":""keydown"",""t"":58575},{""key"":"" "",""event"":""keydown"",""t"":58608},{""key"":"" "",""event"":""keydown"",""t"":58640},{""key"":"" "",""event"":""keydown"",""t"":58675},{""key"":"" "",""event"":""keydown"",""t"":58706},{""key"":"" "",""event"":""keydown"",""t"":58739},{""key"":"" "",""event"":""keydown"",""t"":58771},{""key"":"" "",""event"":""keydown"",""t"":58805},{""key"":"" "",""event"":""keydown"",""t"":58844},{""key"":"" "",""event"":""keydown"",""t"":58878},{""key"":"" "",""event"":""keydown"",""t"":58910},{""key"":"" "",""event"":""keydown"",""t"":58942},{""key"":"" "",""event"":""keydown"",""t"":58975},{""key"":"" "",""event"":""keydown"",""t"":59010},{""key"":"" "",""event"":""keydown"",""t"":59044},{""key"":"" "",""event"":""keydown"",""t"":59079},{""key"":"" "",""event"":""keydown"",""t"":59112},{""key"":"" "",""event"":""keydown"",""t"":59146},{""key"":"" "",""event"":""keydown"",""t"":59178},{""key"":"" "",""event"":""keydown"",""t"":59214},{""key"":"" "",""event"":""keydown"",""t"":59246},{""key"":"" "",""event"":""keydown"",""t"":59280},{""key"":"" "",""event"":""keydown"",""t"":59314},{""key"":"" "",""event"":""keydown"",""t"":59380},{""key"":"" "",""event"":""keydown"",""t"":59415},{""key"":"" "",""event"":""keydown"",""t"":59447},{""key"":"" "",""event"":""keydown"",""t"":59482},{""key"":"" "",""event"":""keydown"",""t"":59518},{""key"":"" "",""event"":""keydown"",""t"":59560},{""key"":"" "",""event"":""keydown"",""t"":59597},{""key"":"" "",""event"":""keydown"",""t"":59630},{""key"":"" "",""event"":""keydown"",""t"":59665},{""key"":"" "",""event"":""keydown"",""t"":59700},{""key"":"" "",""event"":""keydown"",""t"":59734},{""key"":"" "",""event"":""keydown"",""t"":59803},{""key"":"" "",""event"":""keydown"",""t"":59870},{""key"":"" "",""event"":""keydown"",""t"":59906},{""key"":"" "",""event"":""keydown"",""t"":59973},{""key"":"" "",""event"":""keydown"",""t"":60010},{""key"":"" "",""event"":""keydown"",""t"":60045},{""key"":"" "",""event"":""keydown"",""t"":60079},{""key"":"" "",""event"":""keydown"",""t"":60151},{""key"":"" "",""event"":""keydown"",""t"":60185},{""key"":"" "",""event"":""keydown"",""t"":60227},{""key"":"" "",""event"":""keydown"",""t"":60265},{""key"":"" "",""event"":""keydown"",""t"":60337},{""key"":"" "",""event"":""keydown"",""t"":60407},{""key"":"" "",""event"":""keydown"",""t"":60477},{""key"":"" "",""event"":""keydown"",""t"":60512},{""key"":"" "",""event"":""keydown"",""t"":60547},{""key"":"" "",""event"":""keydown"",""t"":60580},{""key"":"" "",""event"":""keydown"",""t"":60615},{""key"":"" "",""event"":""keydown"",""t"":60649},{""key"":"" "",""event"":""keydown"",""t"":60682},{""key"":"" "",""event"":""keydown"",""t"":60717},{""key"":"" "",""event"":""keydown"",""t"":60752},{""key"":"" "",""event"":""keydown"",""t"":60785},{""key"":"" "",""event"":""keydown"",""t"":60822},{""key"":"" "",""event"":""keydown"",""t"":60854},{""key"":"" "",""event"":""keydown"",""t"":60899},{""key"":"" "",""event"":""keydown"",""t"":60939},{""key"":"" "",""event"":""keydown"",""t"":60982},{""key"":"" "",""event"":""keydown"",""t"":61018},{""key"":"" "",""event"":""keydown"",""t"":61053},{""key"":"" "",""event"":""keydown"",""t"":61084},{""key"":"" "",""event"":""keydown"",""t"":61116},{""key"":"" "",""event"":""keydown"",""t"":61148},{""key"":"" "",""event"":""keydown"",""t"":61180},{""key"":"" "",""event"":""keydown"",""t"":61211},{""key"":"" "",""event"":""keydown"",""t"":61245},{""key"":"" "",""event"":""keydown"",""t"":61275},{""key"":"" "",""event"":""keydown"",""t"":61307},{""key"":"" "",""event"":""keydown"",""t"":61340},{""key"":""ArrowRight"",""event"":""keydown"",""t"":61372},{""key"":""ArrowRight"",""event"":""keyup"",""t"":61437},{""key"":""ArrowRight"",""event"":""keydown"",""t"":62564},{""key"":""ArrowRight"",""event"":""keyup"",""t"":62702},{""key"":"" "",""event"":""keyup"",""t"":66911},{""key"":""Enter"",""event"":""keydown"",""t"":79770}]","[]"
"550662","","{""creativity-rating"":4,""creativity-free-response"":""Interesting concept of playing as a Moth trying to reach the moon while maintaining stamina, although the speed of the moth is too fast in my opinion"",""originality-rating"":4,""originality-free-response"":""Never played or seen a game before where you play as a moth, the surprise were the smooth controls"",""effectiveness-rating"":4,""effectiveness-free-response"":""The controls were enjoyable and the scenery, the speed which moth flies up was too fast though."",""authenticity-rating"":4,""attention-check"":3,""intentionality-rating"":4,""authenticity-intentionality-free-response"":""It looks like the developer put his heart and time in it to make something that no one ever tried to make before""}","evaluation-claude-2-moth","survey","4","651858","0.0-4.0","698efa571f78c2fb8bc759fc","6987c292780adf01bb926159","69a4faebeb0004f19e55a7af","","","","","","",""
"66098","","{""concept-creativity-rating"":4,""concept-implementation-rating"":3,""question1"":null}","concept-claude-2-moth","survey","5","717973","0.0-5.0","698efa571f78c2fb8bc759fc","6987c292780adf01bb926159","69a4faebeb0004f19e55a7af","","","","","","",""
"2596","You have completed your evaluation of the first video game.<br><br>Press any key to proceed to the second game.","d","pre-game-two-message","html-keyboard-response","6","720570","0.0-6.0","698efa571f78c2fb8bc759fc","6987c292780adf01bb926159","69a4faebeb0004f19e55a7af","","","","","","",""
"78116","","","game-gemini-5-rename","plugin-game-iframe","7","798686","0.0-7.0","698efa571f78c2fb8bc759fc","6987c292780adf01bb926159","69a4faebeb0004f19e55a7af","game-complete","exit-distance 620","{""stage"":""exit-distance 620"",""detail"":{""wallZipExtension"":"".ghost"",""hazardExtension"":"".static"",""playerBurning"":false,""isTyping"":false,""distanceToExit"":620}}","{""result"":""win""}","null","[{""key"":""d"",""event"":""keyup"",""t"":132},{""key"":"" "",""event"":""keydown"",""t"":1581},{""key"":"" "",""event"":""keyup"",""t"":1827},{""key"":""ArrowRight"",""event"":""keydown"",""t"":2396},{""key"":""ArrowRight"",""event"":""keyup"",""t"":2610},{""key"":""ArrowRight"",""event"":""keydown"",""t"":3161},{""key"":""ArrowRight"",""event"":""keyup"",""t"":3298},{""key"":"" "",""event"":""keydown"",""t"":4951},{""key"":"" "",""event"":""keyup"",""t"":5207},{""key"":""ArrowUp"",""event"":""keydown"",""t"":5352},{""key"":""ArrowUp"",""event"":""keyup"",""t"":5694},{""key"":""ArrowUp"",""event"":""keydown"",""t"":6605},{""key"":""ArrowUp"",""event"":""keydown"",""t"":7107},{""key"":""ArrowUp"",""event"":""keydown"",""t"":7138},{""key"":""ArrowUp"",""event"":""keydown"",""t"":7185},{""key"":""ArrowUp"",""event"":""keydown"",""t"":7216},{""key"":""ArrowUp"",""event"":""keydown"",""t"":7247},{""key"":""ArrowUp"",""event"":""keyup"",""t"":7265},{""key"":""u"",""event"":""keydown"",""t"":11670},{""key"":""u"",""event"":""keyup"",""t"":11775},{""key"":""h"",""event"":""keydown"",""t"":11942},{""key"":""h"",""event"":""keyup"",""t"":12034},{""key"":""h"",""event"":""keydown"",""t"":12112},{""key"":""h"",""event"":""keyup"",""t"":12179},{""key"":""Enter"",""event"":""keydown"",""t"":12609},{""key"":""Enter"",""event"":""keyup"",""t"":12736},{""key"":""ArrowUp"",""event"":""keydown"",""t"":13524},{""key"":""ArrowUp"",""event"":""keyup"",""t"":13820},{""key"":""ArrowRight"",""event"":""keydown"",""t"":14771},{""key"":""ArrowUp"",""event"":""keydown"",""t"":15004},{""key"":""ArrowRight"",""event"":""keyup"",""t"":15464},{""key"":""ArrowRight"",""event"":""keydown"",""t"":15523},{""key"":""ArrowRight"",""event"":""keyup"",""t"":15664},{""key"":""ArrowRight"",""event"":""keydown"",""t"":15691},{""key"":""ArrowRight"",""event"":""keyup"",""t"":15792},{""key"":""ArrowUp"",""event"":""keyup"",""t"":15801},{""key"":""ArrowRight"",""event"":""keydown"",""t"":15915},{""key"":""ArrowRight"",""event"":""keyup"",""t"":16097},{""key"":"" "",""event"":""keydown"",""t"":16876},{""key"":"" "",""event"":""keyup"",""t"":17031},{""key"":""ArrowUp"",""event"":""keydown"",""t"":17482},{""key"":""ArrowUp"",""event"":""keyup"",""t"":17626},{""key"":""ArrowRight"",""event"":""keydown"",""t"":18315},{""key"":""ArrowRight"",""event"":""keyup"",""t"":18606},{""key"":""w"",""event"":""keydown"",""t"":23803},{""key"":""w"",""event"":""keyup"",""t"":23940},{""key"":""Backspace"",""event"":""keydown"",""t"":24568},{""key"":""Backspace"",""event"":""keyup"",""t"":24682},{""key"":""Shift"",""event"":""keydown"",""t"":24710},{""key"":""W"",""event"":""keydown"",""t"":24805},{""key"":""Shift"",""event"":""keyup"",""t"":24842},{""key"":""a"",""event"":""keydown"",""t"":24874},{""key"":""w"",""event"":""keyup"",""t"":24924},{""key"":""l"",""event"":""keydown"",""t"":24960},{""key"":""a"",""event"":""keyup"",""t"":24996},{""key"":""l"",""event"":""keyup"",""t"":25032},{""key"":""l"",""event"":""keydown"",""t"":25106},{""key"":""l"",""event"":""keyup"",""t"":25147},{""key"":""."",""event"":""keydown"",""t"":25256},{""key"":""."",""event"":""keyup"",""t"":25351},{""key"":""s"",""event"":""keydown"",""t"":25388},{""key"":""s"",""event"":""keyup"",""t"":25466},{""key"":""t"",""event"":""keydown"",""t"":25570},{""key"":""t"",""event"":""keyup"",""t"":25661},{""key"":""a"",""event"":""keydown"",""t"":25662},{""key"":""a"",""event"":""keyup"",""t"":25766},{""key"":""t"",""event"":""keydown"",""t"":25785},{""key"":""i"",""event"":""keydown"",""t"":25853},{""key"":""t"",""event"":""keyup"",""t"":25857},{""key"":""i"",""event"":""keyup"",""t"":25952},{""key"":""c"",""event"":""keydown"",""t"":26021},{""key"":""c"",""event"":""keyup"",""t"":26103},{""key"":""Enter"",""event"":""keydown"",""t"":26660},{""key"":""Enter"",""event"":""keyup"",""t"":26768},{""key"":""ArrowRight"",""event"":""keydown"",""t"":28093},{""key"":""ArrowUp"",""event"":""keydown"",""t"":28326},{""key"":""ArrowUp"",""event"":""keydown"",""t"":28838},{""key"":""ArrowUp"",""event"":""keydown"",""t"":28870},{""key"":""ArrowUp"",""event"":""keydown"",""t"":28900},{""key"":""ArrowUp"",""event"":""keydown"",""t"":28932},{""key"":""ArrowUp"",""event"":""keydown"",""t"":28962},{""key"":""ArrowUp"",""event"":""keydown"",""t"":28993},{""key"":""ArrowUp"",""event"":""keydown"",""t"":29025},{""key"":""ArrowUp"",""event"":""keyup"",""t"":29064},{""key"":""ArrowRight"",""event"":""keyup"",""t"":29196},{""key"":""ArrowUp"",""event"":""keydown"",""t"":29842},{""key"":""ArrowRight"",""event"":""keydown"",""t"":29911},{""key"":""ArrowRight"",""event"":""keydown"",""t"":30420},{""key"":""ArrowRight"",""event"":""keydown"",""t"":30450},{""key"":""ArrowRight"",""event"":""keydown"",""t"":30482},{""key"":""ArrowRight"",""event"":""keydown"",""t"":30512},{""key"":""ArrowRight"",""event"":""keydown"",""t"":30543},{""key"":""ArrowRight"",""event"":""keydown"",""t"":30590},{""key"":""ArrowRight"",""event"":""keydown"",""t"":30620},{""key"":""ArrowRight"",""event"":""keydown"",""t"":30652},{""key"":""ArrowRight"",""event"":""keydown"",""t"":30682},{""key"":""ArrowRight"",""event"":""keydown"",""t"":30714},{""key"":""ArrowRight"",""event"":""keydown"",""t"":30745},{""key"":""ArrowUp"",""event"":""keyup"",""t"":30758},{""key"":""ArrowRight"",""event"":""keyup"",""t"":30926},{""key"":""ArrowLeft"",""event"":""keydown"",""t"":31318},{""key"":""ArrowUp"",""event"":""keydown"",""t"":31513},{""key"":""ArrowUp"",""event"":""keydown"",""t"":32016},{""key"":""ArrowUp"",""event"":""keydown"",""t"":32047},{""key"":""ArrowUp"",""event"":""keydown"",""t"":32093},{""key"":""ArrowUp"",""event"":""keydown"",""t"":32125},{""key"":""ArrowUp"",""event"":""keydown"",""t"":32156},{""key"":""ArrowUp"",""event"":""keydown"",""t"":32186},{""key"":""ArrowUp"",""event"":""keydown"",""t"":32218},{""key"":""ArrowUp"",""event"":""keydown"",""t"":32248},{""key"":""ArrowUp"",""event"":""keydown"",""t"":32279},{""key"":""ArrowUp"",""event"":""keydown"",""t"":32311},{""key"":""ArrowUp"",""event"":""keydown"",""t"":32357},{""key"":""ArrowUp"",""event"":""keydown"",""t"":32388},{""key"":""ArrowUp"",""event"":""keydown"",""t"":32419},{""key"":""ArrowUp"",""event"":""keydown"",""t"":32449},{""key"":""ArrowUp"",""event"":""keydown"",""t"":32481},{""key"":""ArrowUp"",""event"":""keyup"",""t"":32511},{""key"":""ArrowLeft"",""event"":""keyup"",""t"":32702},{""key"":""ArrowLeft"",""event"":""keydown"",""t"":32770},{""key"":""ArrowUp"",""event"":""keydown"",""t"":32789},{""key"":""ArrowLeft"",""event"":""keyup"",""t"":33044},{""key"":""ArrowRight"",""event"":""keydown"",""t"":33126},{""key"":""ArrowRight"",""event"":""keyup"",""t"":33381},{""key"":""ArrowUp"",""event"":""keyup"",""t"":33408},{""key"":""ArrowDown"",""event"":""keydown"",""t"":33745},{""key"":""ArrowRight"",""event"":""keydown"",""t"":33977},{""key"":""ArrowRight"",""event"":""keyup"",""t"":34169},{""key"":""ArrowDown"",""event"":""keyup"",""t"":34597},{""key"":""ArrowRight"",""event"":""keydown"",""t"":35175},{""key"":""ArrowUp"",""event"":""keydown"",""t"":35307},{""key"":""ArrowUp"",""event"":""keyup"",""t"":35776},{""key"":""ArrowRight"",""event"":""keyup"",""t"":36077},{""key"":""ArrowRight"",""event"":""keydown"",""t"":36354},{""key"":""ArrowRight"",""event"":""keyup"",""t"":36555},{""key"":""ArrowUp"",""event"":""keydown"",""t"":36833},{""key"":""ArrowRight"",""event"":""keydown"",""t"":37115},{""key"":"" "",""event"":""keydown"",""t"":37293},{""key"":""ArrowUp"",""event"":""keyup"",""t"":37516},{""key"":"" "",""event"":""keyup"",""t"":37602},{""key"":""ArrowRight"",""event"":""keyup"",""t"":37739},{""key"":""ArrowUp"",""event"":""keydown"",""t"":38213},{""key"":""ArrowUp"",""event"":""keydown"",""t"":38727},{""key"":""ArrowUp"",""event"":""keyup"",""t"":38747},{""key"":""ArrowLeft"",""event"":""keydown"",""t"":39695},{""key"":""ArrowUp"",""event"":""keydown"",""t"":39873},{""key"":""ArrowUp"",""event"":""keydown"",""t"":40386},{""key"":""ArrowUp"",""event"":""keydown"",""t"":40417},{""key"":""ArrowUp"",""event"":""keydown"",""t"":40448},{""key"":""ArrowUp"",""event"":""keydown"",""t"":40479},{""key"":""ArrowUp"",""event"":""keydown"",""t"":40510},{""key"":""ArrowUp"",""event"":""keydown"",""t"":40541},{""key"":""ArrowUp"",""event"":""keydown"",""t"":40572},{""key"":""ArrowUp"",""event"":""keydown"",""t"":40619},{""key"":""ArrowUp"",""event"":""keyup"",""t"":40647},{""key"":""ArrowLeft"",""event"":""keyup"",""t"":40894},{""key"":""Shift"",""event"":""keydown"",""t"":44705},{""key"":""U"",""event"":""keydown"",""t"":44814},{""key"":""Shift"",""event"":""keyup"",""t"":44914},{""key"":""u"",""event"":""keyup"",""t"":44927},{""key"":""s"",""event"":""keydown"",""t"":45006},{""key"":""s"",""event"":""keyup"",""t"":45097},{""key"":""e"",""event"":""keydown"",""t"":45138},{""key"":""e"",""event"":""keyup"",""t"":45234},{""key"":""r"",""event"":""keydown"",""t"":45361},{""key"":""r"",""event"":""keyup"",""t"":45466},{""key"":""."",""event"":""keydown"",""t"":45845},{""key"":""."",""event"":""keyup"",""t"":45968},{""key"":""g"",""event"":""keydown"",""t"":45972},{""key"":""g"",""event"":""keyup"",""t"":46059},{""key"":""r"",""event"":""keydown"",""t"":46150},{""key"":""a"",""event"":""keydown"",""t"":46209},{""key"":""r"",""event"":""keyup"",""t"":46241},{""key"":""a"",""event"":""keyup"",""t"":46287},{""key"":""v"",""event"":""keydown"",""t"":46328},{""key"":""i"",""event"":""keydown"",""t"":46386},{""key"":""v"",""event"":""keyup"",""t"":46441},{""key"":""i"",""event"":""keyup"",""t"":46492},{""key"":""t"",""event"":""keydown"",""t"":46538},{""key"":""t"",""event"":""keyup"",""t"":46620},{""key"":""y"",""event"":""keydown"",""t"":46693},{""key"":""y"",""event"":""keyup"",""t"":46779},{""key"":""Shift"",""event"":""keydown"",""t"":46852},{""key"":""+"",""event"":""keydown"",""t"":46930},{""key"":""+"",""event"":""keyup"",""t"":47103},{""key"":""Shift"",""event"":""keyup"",""t"":47117},{""key"":""1"",""event"":""keydown"",""t"":47358},{""key"":""1"",""event"":""keyup"",""t"":47459},{""key"":""Backspace"",""event"":""keydown"",""t"":47618},{""key"":""Backspace"",""event"":""keyup"",""t"":47696},{""key"":""Shift"",""event"":""keydown"",""t"":47796},{""key"":""Backspace"",""event"":""keydown"",""t"":47824},{""key"":""Backspace"",""event"":""keyup"",""t"":47892},{""key"":""_"",""event"":""keydown"",""t"":48001},{""key"":""_"",""event"":""keyup"",""t"":48147},{""key"":""Shift"",""event"":""keyup"",""t"":48179},{""key"":""1"",""event"":""keydown"",""t"":48526},{""key"":""1"",""event"":""keyup"",""t"":48607},{""key"":""Enter"",""event"":""keydown"",""t"":48786},{""key"":""Enter"",""event"":""keyup"",""t"":48904},{""key"":""Shift"",""event"":""keydown"",""t"":51274},{""key"":""U"",""event"":""keydown"",""t"":51411},{""key"":""Shift"",""event"":""keyup"",""t"":51484},{""key"":""u"",""event"":""keyup"",""t"":51511},{""key"":""s"",""event"":""keydown"",""t"":51562},{""key"":""e"",""event"":""keydown"",""t"":51653},{""key"":""s"",""event"":""keyup"",""t"":51689},{""key"":""e"",""event"":""keyup"",""t"":51739},{""key"":""r"",""event"":""keydown"",""t"":51826},{""key"":""r"",""event"":""keyup"",""t"":51908},{""key"":""."",""event"":""keydown"",""t"":51935},{""key"":""."",""event"":""keyup"",""t"":52031},{""key"":""g"",""event"":""keydown"",""t"":52064},{""key"":""g"",""event"":""keyup"",""t"":52136},{""key"":""r"",""event"":""keydown"",""t"":52223},{""key"":""a"",""event"":""keydown"",""t"":52291},{""key"":""r"",""event"":""keyup"",""t"":52319},{""key"":""a"",""event"":""keyup"",""t"":52378},{""key"":""v"",""event"":""keydown"",""t"":52419},{""key"":""i"",""event"":""keydown"",""t"":52492},{""key"":""v"",""event"":""keyup"",""t"":52533},{""key"":""i"",""event"":""keyup"",""t"":52578},{""key"":""t"",""event"":""keydown"",""t"":52601},{""key"":""t"",""event"":""keyup"",""t"":52697},{""key"":""y"",""event"":""keydown"",""t"":52807},{""key"":""y"",""event"":""keyup"",""t"":52893},{""key"":""Enter"",""event"":""keydown"",""t"":53112},{""key"":""Enter"",""event"":""keyup"",""t"":53226},{""key"":""u"",""event"":""keydown"",""t"":55952},{""key"":""u"",""event"":""keyup"",""t"":56042},{""key"":""h"",""event"":""keydown"",""t"":56176},{""key"":""h"",""event"":""keyup"",""t"":56239},{""key"":""h"",""event"":""keydown"",""t"":56299},{""key"":""h"",""event"":""keyup"",""t"":56381},{""key"":""Enter"",""event"":""keydown"",""t"":56413},{""key"":""Enter"",""event"":""keyup"",""t"":56531},{""key"":""Enter"",""event"":""keydown"",""t"":62477},{""key"":""Enter"",""event"":""keyup"",""t"":62546},{""key"":""ArrowRight"",""event"":""keydown"",""t"":62842},{""key"":""ArrowUp"",""event"":""keydown"",""t"":62965},{""key"":""ArrowUp"",""event"":""keydown"",""t"":63466},{""key"":""ArrowUp"",""event"":""keydown"",""t"":63512},{""key"":""ArrowUp"",""event"":""keyup"",""t"":63526},{""key"":""ArrowRight"",""event"":""keyup"",""t"":63895},{""key"":""g"",""event"":""keydown"",""t"":66271},{""key"":""g"",""event"":""keyup"",""t"":66348},{""key"":""h"",""event"":""keydown"",""t"":66444},{""key"":""h"",""event"":""keyup"",""t"":66535},{""key"":""o"",""event"":""keydown"",""t"":66676},{""key"":""s"",""event"":""keydown"",""t"":66737},{""key"":""o"",""event"":""keyup"",""t"":66748},{""key"":""s"",""event"":""keyup"",""t"":66828},{""key"":""t"",""event"":""keydown"",""t"":66891},{""key"":""t"",""event"":""keyup"",""t"":66972},{""key"":""Enter"",""event"":""keydown"",""t"":67041},{""key"":""Enter"",""event"":""keyup"",""t"":67151},{""key"":""ArrowRight"",""event"":""keydown"",""t"":67538},{""key"":""ArrowRight"",""event"":""keydown"",""t"":68038},{""key"":""ArrowRight"",""event"":""keydown"",""t"":68084},{""key"":""ArrowRight"",""event"":""keydown"",""t"":68116},{""key"":""ArrowRight"",""event"":""keydown"",""t"":68146},{""key"":""ArrowRight"",""event"":""keydown"",""t"":68178},{""key"":""ArrowRight"",""event"":""keydown"",""t"":68208},{""key"":""ArrowRight"",""event"":""keydown"",""t"":68240},{""key"":""ArrowRight"",""event"":""keydown"",""t"":68270},{""key"":""ArrowRight"",""event"":""keydown"",""t"":68317},{""key"":""ArrowRight"",""event"":""keydown"",""t"":68348},{""key"":""ArrowRight"",""event"":""keydown"",""t"":68378},{""key"":""ArrowRight"",""event"":""keydown"",""t"":68410},{""key"":""ArrowRight"",""event"":""keydown"",""t"":68441},{""key"":""ArrowRight"",""event"":""keydown"",""t"":68472},{""key"":""ArrowRight"",""event"":""keydown"",""t"":68503},{""key"":""ArrowRight"",""event"":""keydown"",""t"":68534},{""key"":""ArrowRight"",""event"":""keydown"",""t"":68581},{""key"":""ArrowRight"",""event"":""keydown"",""t"":68611},{""key"":""ArrowRight"",""event"":""keydown"",""t"":68643},{""key"":""ArrowRight"",""event"":""keydown"",""t"":68673},{""key"":""ArrowRight"",""event"":""keydown"",""t"":68704},{""key"":""ArrowRight"",""event"":""keydown"",""t"":68736},{""key"":""ArrowRight"",""event"":""keydown"",""t"":68766},{""key"":""ArrowRight"",""event"":""keydown"",""t"":68797},{""key"":""ArrowRight"",""event"":""keydown"",""t"":68844},{""key"":""ArrowRight"",""event"":""keydown"",""t"":68874},{""key"":""ArrowRight"",""event"":""keyup"",""t"":68883},{""key"":""Shift"",""event"":""keydown"",""t"":71474},{""key"":""W"",""event"":""keydown"",""t"":71550},{""key"":""Shift"",""event"":""keyup"",""t"":71592},{""key"":""a"",""event"":""keydown"",""t"":71636},{""key"":""w"",""event"":""keyup"",""t"":71673},{""key"":""a"",""event"":""keyup"",""t"":71742},{""key"":""l"",""event"":""keydown"",""t"":71743},{""key"":""l"",""event"":""keyup"",""t"":71815},{""key"":""l"",""event"":""keydown"",""t"":71874},{""key"":""l"",""event"":""keyup"",""t"":71938},{""key"":""."",""event"":""keydown"",""t"":72033},{""key"":""g"",""event"":""keydown"",""t"":72111},{""key"":""."",""event"":""keyup"",""t"":72120},{""key"":""g"",""event"":""keyup"",""t"":72170},{""key"":""h"",""event"":""keydown"",""t"":72252},{""key"":""h"",""event"":""keyup"",""t"":72339},{""key"":""s"",""event"":""keydown"",""t"":72435},{""key"":""s"",""event"":""keyup"",""t"":72476},{""key"":""Backspace"",""event"":""keydown"",""t"":72854},{""key"":""Backspace"",""event"":""keyup"",""t"":72941},{""key"":""o"",""event"":""keydown"",""t"":73018},{""key"":""s"",""event"":""keydown"",""t"":73087},{""key"":""o"",""event"":""keyup"",""t"":73115},{""key"":""s"",""event"":""keyup"",""t"":73150},{""key"":""t"",""event"":""keydown"",""t"":73187},{""key"":""t"",""event"":""keyup"",""t"":73264},{""key"":""Enter"",""event"":""keydown"",""t"":73306},{""key"":""Enter"",""event"":""keyup"",""t"":73420},{""key"":""ArrowRight"",""event"":""keydown"",""t"":73771},{""key"":""ArrowUp"",""event"":""keydown"",""t"":74062},{""key"":""ArrowUp"",""event"":""keyup"",""t"":74208},{""key"":""ArrowRight"",""event"":""keyup"",""t"":75011},{""key"":""Enter"",""event"":""keydown"",""t"":78116}]","[]"
"127768","","{""creativity-rating"":5,""creativity-free-response"":""Having the ability to rename objects to make them change into whatever you want, for example:from a wall to a wall that you can pass through."",""originality-rating"":4,""originality-free-response"":""The ability to make your own path and having to think which object to change into what"",""effectiveness-rating"":3,""effectiveness-free-response"":""The concept of giving the player freedom of choice was good, the graphics and quality were very old looking."",""attention-check"":3,""authenticity-rating"":3,""intentionality-rating"":2,""authenticity-intentionality-free-response"":""I think it's just a fun side project and not meant to be a full on game, but its a cool concept.""}","evaluation-gemini-5-rename","survey","8","926488","0.0-8.0","698efa571f78c2fb8bc759fc","6987c292780adf01bb926159","69a4faebeb0004f19e55a7af","","","","","","",""
"73594","","{""concept-creativity-rating"":3,""concept-implementation-rating"":4,""question1"":null}","concept-gemini-5-rename","survey","9","1000100","0.0-9.0","698efa571f78c2fb8bc759fc","6987c292780adf01bb926159","69a4faebeb0004f19e55a7af","","","","","","",""
"1731","You have completed your evaluation of the second video game.<br><br>Press any key to proceed to the final game.","arrowright","pre-game-three-message","html-keyboard-response","10","1001830","0.0-10.0","698efa571f78c2fb8bc759fc","6987c292780adf01bb926159","69a4faebeb0004f19e55a7af","","","","","","",""
"33427","","","game-gemini-6-redact","plugin-game-iframe","11","1035258","0.0-11.0","698efa571f78c2fb8bc759fc","6987c292780adf01bb926159","69a4faebeb0004f19e55a7af","game-complete","static","{""stage"":""static"",""detail"":{""playerSpeed"":50,""mobilityUnlocked"":false,""fragileWallAlive"":false,""playerX"":732.3333333333429,""playerY"":560}}","{""result"":""win""}","null","[{""key"":""ArrowRight"",""event"":""keyup"",""t"":169},{""key"":""ArrowRight"",""event"":""keydown"",""t"":1395},{""key"":""ArrowUp"",""event"":""keydown"",""t"":1801},{""key"":""ArrowUp"",""event"":""keyup"",""t"":2302},{""key"":""ArrowRight"",""event"":""keyup"",""t"":9163},{""key"":""ArrowUp"",""event"":""keydown"",""t"":9178},{""key"":""ArrowRight"",""event"":""keydown"",""t"":9196},{""key"":""ArrowRight"",""event"":""keyup"",""t"":9300},{""key"":""ArrowRight"",""event"":""keydown"",""t"":9570},{""key"":""ArrowRight"",""event"":""keydown"",""t"":10070},{""key"":""ArrowRight"",""event"":""keydown"",""t"":10116},{""key"":""ArrowRight"",""event"":""keydown"",""t"":10147},{""key"":""ArrowRight"",""event"":""keyup"",""t"":10154},{""key"":""ArrowUp"",""event"":""keyup"",""t"":10157},{""key"":""ArrowLeft"",""event"":""keydown"",""t"":10341},{""key"":""ArrowLeft"",""event"":""keyup"",""t"":10450},{""key"":""ArrowRight"",""event"":""keydown"",""t"":10846},{""key"":""ArrowRight"",""event"":""keyup"",""t"":11066},{""key"":""ArrowUp"",""event"":""keydown"",""t"":11193},{""key"":""ArrowUp"",""event"":""keydown"",""t"":11697},{""key"":""ArrowUp"",""event"":""keydown"",""t"":11728},{""key"":""ArrowUp"",""event"":""keydown"",""t"":11760},{""key"":""ArrowUp"",""event"":""keydown"",""t"":11806},{""key"":""ArrowUp"",""event"":""keydown"",""t"":11837},{""key"":""ArrowUp"",""event"":""keydown"",""t"":11868},{""key"":""ArrowUp"",""event"":""keydown"",""t"":11899},{""key"":""ArrowUp"",""event"":""keydown"",""t"":11930},{""key"":""ArrowUp"",""event"":""keydown"",""t"":11961},{""key"":""ArrowUp"",""event"":""keydown"",""t"":11992},{""key"":""ArrowUp"",""event"":""keydown"",""t"":12023},{""key"":""ArrowUp"",""event"":""keydown"",""t"":12069},{""key"":""ArrowUp"",""event"":""keydown"",""t"":12101},{""key"":""ArrowUp"",""event"":""keydown"",""t"":12131},{""key"":""ArrowLeft"",""event"":""keydown"",""t"":12132},{""key"":""ArrowRight"",""event"":""keydown"",""t"":12415},{""key"":""ArrowLeft"",""event"":""keyup"",""t"":12433},{""key"":""ArrowRight"",""event"":""keyup"",""t"":12829},{""key"":""ArrowUp"",""event"":""keyup"",""t"":12893},{""key"":""ArrowRight"",""event"":""keydown"",""t"":13075},{""key"":""ArrowUp"",""event"":""keydown"",""t"":13185},{""key"":""ArrowRight"",""event"":""keyup"",""t"":13572},{""key"":""ArrowLeft"",""event"":""keydown"",""t"":13581},{""key"":""ArrowLeft"",""event"":""keydown"",""t"":14085},{""key"":""ArrowLeft"",""event"":""keydown"",""t"":14115},{""key"":""ArrowLeft"",""event"":""keydown"",""t"":14162},{""key"":""ArrowLeft"",""event"":""keydown"",""t"":14192},{""key"":""ArrowLeft"",""event"":""keydown"",""t"":14224},{""key"":""ArrowLeft"",""event"":""keydown"",""t"":14255},{""key"":""ArrowLeft"",""event"":""keydown"",""t"":14287},{""key"":""ArrowLeft"",""event"":""keydown"",""t"":14316},{""key"":""ArrowLeft"",""event"":""keydown"",""t"":14348},{""key"":""ArrowLeft"",""event"":""keyup"",""t"":14376},{""key"":""ArrowUp"",""event"":""keyup"",""t"":14499},{""key"":""ArrowRight"",""event"":""keydown"",""t"":14499},{""key"":""ArrowUp"",""event"":""keydown"",""t"":14566},{""key"":""ArrowUp"",""event"":""keydown"",""t"":15077},{""key"":""ArrowUp"",""event"":""keydown"",""t"":15107},{""key"":""ArrowUp"",""event"":""keydown"",""t"":15138},{""key"":""ArrowUp"",""event"":""keydown"",""t"":15170},{""key"":""ArrowUp"",""event"":""keyup"",""t"":15200},{""key"":""ArrowRight"",""event"":""keyup"",""t"":15265},{""key"":""ArrowRight"",""event"":""keydown"",""t"":15374},{""key"":""ArrowRight"",""event"":""keyup"",""t"":15574},{""key"":""ArrowRight"",""event"":""keydown"",""t"":28693},{""key"":""ArrowRight"",""event"":""keydown"",""t"":29197},{""key"":""ArrowUp"",""event"":""keydown"",""t"":29207},{""key"":""ArrowUp"",""event"":""keydown"",""t"":29708},{""key"":""ArrowUp"",""event"":""keydown"",""t"":29755},{""key"":""ArrowUp"",""event"":""keyup"",""t"":29783},{""key"":""ArrowRight"",""event"":""keyup"",""t"":32816},{""key"":""Enter"",""event"":""keydown"",""t"":33427}]","[]"
"156159","","{""creativity-rating"":3,""creativity-free-response"":""I actually dont know what to answer to this question as the game was buggy and I dont even know what happened"",""originality-rating"":4,""originality-free-response"":""It seemed like an original idea with the cube dragging along the wall"",""effectiveness-rating"":1,""effectiveness-free-response"":""It felt very weird and sluggish, the cube was very slow and I don't even know how I got past the level"",""authenticity-rating"":3,""attention-check"":3,""intentionality-rating"":2,""authenticity-intentionality-free-response"":""Game had black color and it looked very, empty and soulless""}","evaluation-gemini-6-redact","survey","12","1191450","0.0-12.0","698efa571f78c2fb8bc759fc","6987c292780adf01bb926159","69a4faebeb0004f19e55a7af","","","","","","",""
"16594","","{""concept-creativity-rating"":4,""concept-implementation-rating"":2,""question1"":null}","concept-gemini-6-redact","survey","13","1208059","0.0-13.0","698efa571f78c2fb8bc759fc","6987c292780adf01bb926159","69a4faebeb0004f19e55a7af","","","","","","",""
"2329","You have completed all of the games!<br><br>Press any key to proceed to some final questions before returning to Prolific.","d","pre-baseline-questions","html-keyboard-response","14","1210388","0.0-14.0","698efa571f78c2fb8bc759fc","6987c292780adf01bb926159","69a4faebeb0004f19e55a7af","","","","","","",""
"18513","","{""baseline_originality_rating"":4,""baseline_effectiveness_rating"":5,""baseline_authenticity_rating"":3,""baseline_intentionality_rating"":3}","baseline-questions-rating","survey","15","1228916","0.0-15.0","698efa571f78c2fb8bc759fc","6987c292780adf01bb926159","69a4faebeb0004f19e55a7af","","","","","","",""
"59126","","{""ai_blind_question"":""Yes, AI, like humans, still make mistakes, sometimes even bigger mistakes than humans and I could actually see these games being made by AI. On the third game the text overlapped over itself and the third game felt, weird.""}","ai-blind-question","survey","16","1288047","0.0-16.0","698efa571f78c2fb8bc759fc","6987c292780adf01bb926159","69a4faebeb0004f19e55a7af","","","","","","",""
"4848","
        <p> You have completed the experiment! Press any key to save your data and get redirected back to Prolific. <strong>Please do not close the page until you have been redirected to Prolific.</strong> <p>
      ","d","goodbye","html-keyboard-response","17","1292896","0.0-17.0","698efa571f78c2fb8bc759fc","6987c292780adf01bb926159","69a4faebeb0004f19e55a7af","","","","","","",""
