"rt","stimulus","response","phase","trial_type","trial_index","time_elapsed","internal_node_id","prolific_subject_id","study_id","session_id","exit_reason","game_data","emergency_text","keystrokes","mouse_events"
"11177","Welcome!<br><br>In this study, you will play three short video games that were generated by Artificial Intelligence (AI) and complete a short survey after each game.<br><br>Please make sure you are in a quiet environment where you can focus for the duration of the study. Some games may use sound, so please ensure that your device's volume is not muted.<br><br>Press any key to begin."," ","welcome-message","html-keyboard-response","0","11181","0.0-0.0","699c8b77fb904ad725023f28","6987c292780adf01bb926159","69a1ed8b9489f978c2b23b7b","","","","",""
"39758","","{""commitment-check"":[""yes""]}","commitment-check","survey","1","50965","0.0-1.0","699c8b77fb904ad725023f28","6987c292780adf01bb926159","69a1ed8b9489f978c2b23b7b","","","","",""
"3937","Press any key to proceed to the first video game."," ","pre-game-one-message","html-keyboard-response","2","54903","0.0-2.0","699c8b77fb904ad725023f28","6987c292780adf01bb926159","69a1ed8b9489f978c2b23b7b","","","","",""
"690981","","","game-chat-2-murmuration","plugin-game-iframe","3","745892","0.0-3.0","699c8b77fb904ad725023f28","6987c292780adf01bb926159","69a1ed8b9489f978c2b23b7b","game-complete","{""result"":""win"",""birdsAlive"":36,""timeRemaining"":130.13560999981885}","null","[{""key"":"" "",""event"":""keyup"",""t"":31},{""key"":"" "",""event"":""keydown"",""t"":8075},{""key"":"" "",""event"":""keyup"",""t"":8139},{""key"":""d"",""event"":""keydown"",""t"":8511},{""key"":""d"",""event"":""keyup"",""t"":8695},{""key"":""a"",""event"":""keydown"",""t"":8951},{""key"":""a"",""event"":""keyup"",""t"":9121},{""key"":""w"",""event"":""keydown"",""t"":10639},{""key"":""w"",""event"":""keyup"",""t"":10765},{""key"":""d"",""event"":""keydown"",""t"":11376},{""key"":""d"",""event"":""keyup"",""t"":11519},{""key"":""a"",""event"":""keydown"",""t"":13276},{""key"":""a"",""event"":""keyup"",""t"":13501},{""key"":""q"",""event"":""keydown"",""t"":69623},{""key"":""q"",""event"":""keyup"",""t"":69955},{""key"":""q"",""event"":""keydown"",""t"":70109},{""key"":""q"",""event"":""keyup"",""t"":70239},{""key"":""q"",""event"":""keydown"",""t"":70429},{""key"":""q"",""event"":""keyup"",""t"":70740},{""key"":""q"",""event"":""keydown"",""t"":70897},{""key"":""q"",""event"":""keyup"",""t"":70985},{""key"":""q"",""event"":""keydown"",""t"":71851},{""key"":""q"",""event"":""keyup"",""t"":71935},{""key"":""r"",""event"":""keydown"",""t"":96659},{""key"":""r"",""event"":""keyup"",""t"":96689},{""key"":"" "",""event"":""keydown"",""t"":102911},{""key"":"" "",""event"":""keyup"",""t"":102967},{""key"":""q"",""event"":""keydown"",""t"":222012},{""key"":""q"",""event"":""keyup"",""t"":222072},{""key"":""q"",""event"":""keydown"",""t"":222252},{""key"":""q"",""event"":""keyup"",""t"":222384},{""key"":""q"",""event"":""keydown"",""t"":222636},{""key"":""q"",""event"":""keyup"",""t"":222742},{""key"":""q"",""event"":""keydown"",""t"":222854},{""key"":""q"",""event"":""keyup"",""t"":222926},{""key"":""a"",""event"":""keydown"",""t"":225873},{""key"":""a"",""event"":""keyup"",""t"":225962},{""key"":""a"",""event"":""keydown"",""t"":226068},{""key"":""a"",""event"":""keyup"",""t"":226133},{""key"":""a"",""event"":""keydown"",""t"":226242},{""key"":""a"",""event"":""keyup"",""t"":226299},{""key"":""a"",""event"":""keydown"",""t"":226414},{""key"":""a"",""event"":""keyup"",""t"":226494},{""key"":""a"",""event"":""keydown"",""t"":226620},{""key"":""a"",""event"":""keyup"",""t"":226700},{""key"":""a"",""event"":""keydown"",""t"":227926},{""key"":""a"",""event"":""keyup"",""t"":228062},{""key"":""a"",""event"":""keydown"",""t"":228472},{""key"":""a"",""event"":""keyup"",""t"":228558},{""key"":""a"",""event"":""keydown"",""t"":228647},{""key"":""a"",""event"":""keyup"",""t"":228736},{""key"":""q"",""event"":""keydown"",""t"":228950},{""key"":""q"",""event"":""keyup"",""t"":229028},{""key"":""q"",""event"":""keydown"",""t"":229118},{""key"":""q"",""event"":""keyup"",""t"":229201},{""key"":""a"",""event"":""keydown"",""t"":230529},{""key"":""a"",""event"":""keyup"",""t"":230632},{""key"":""e"",""event"":""keydown"",""t"":309724},{""key"":""e"",""event"":""keyup"",""t"":309762},{""key"":""e"",""event"":""keydown"",""t"":309898},{""key"":""e"",""event"":""keyup"",""t"":310004},{""key"":""e"",""event"":""keydown"",""t"":310140},{""key"":""e"",""event"":""keyup"",""t"":310216},{""key"":""e"",""event"":""keydown"",""t"":310308},{""key"":""e"",""event"":""keyup"",""t"":310390},{""key"":""d"",""event"":""keydown"",""t"":310527},{""key"":""d"",""event"":""keyup"",""t"":310630},{""key"":""d"",""event"":""keydown"",""t"":310790},{""key"":""d"",""event"":""keyup"",""t"":310870},{""key"":""d"",""event"":""keydown"",""t"":310972},{""key"":""d"",""event"":""keyup"",""t"":311054},{""key"":""d"",""event"":""keydown"",""t"":311176},{""key"":""d"",""event"":""keyup"",""t"":311244},{""key"":""r"",""event"":""keydown"",""t"":407184},{""key"":""r"",""event"":""keyup"",""t"":407208},{""key"":"" "",""event"":""keydown"",""t"":419176},{""key"":"" "",""event"":""keyup"",""t"":419218},{""key"":""q"",""event"":""keydown"",""t"":421368},{""key"":""q"",""event"":""keyup"",""t"":421492},{""key"":""e"",""event"":""keydown"",""t"":501780},{""key"":""e"",""event"":""keyup"",""t"":501880},{""key"":""r"",""event"":""keydown"",""t"":516330},{""key"":""r"",""event"":""keyup"",""t"":516466},{""key"":""r"",""event"":""keydown"",""t"":517104},{""key"":""r"",""event"":""keyup"",""t"":517186},{""key"":"" "",""event"":""keydown"",""t"":517502},{""key"":"" "",""event"":""keyup"",""t"":517622},{""key"":""q"",""event"":""keydown"",""t"":629050},{""key"":""q"",""event"":""keyup"",""t"":629072},{""key"":""q"",""event"":""keydown"",""t"":629176},{""key"":""q"",""event"":""keyup"",""t"":629250},{""key"":""q"",""event"":""keydown"",""t"":629358},{""key"":""q"",""event"":""keyup"",""t"":629412},{""key"":""q"",""event"":""keydown"",""t"":629496},{""key"":""q"",""event"":""keyup"",""t"":629572},{""key"":""q"",""event"":""keydown"",""t"":629674},{""key"":""q"",""event"":""keyup"",""t"":629764},{""key"":""a"",""event"":""keydown"",""t"":629892},{""key"":""a"",""event"":""keyup"",""t"":630280},{""key"":""a"",""event"":""keydown"",""t"":630380},{""key"":""a"",""event"":""keyup"",""t"":630476},{""key"":""a"",""event"":""keydown"",""t"":630568},{""key"":""a"",""event"":""keyup"",""t"":630646},{""key"":""a"",""event"":""keydown"",""t"":630744},{""key"":""a"",""event"":""keyup"",""t"":630830},{""key"":""a"",""event"":""keydown"",""t"":630934},{""key"":""a"",""event"":""keyup"",""t"":631018},{""key"":""a"",""event"":""keydown"",""t"":631122},{""key"":""a"",""event"":""keyup"",""t"":631206},{""key"":""a"",""event"":""keydown"",""t"":631302},{""key"":""a"",""event"":""keyup"",""t"":631378},{""key"":""a"",""event"":""keydown"",""t"":631466},{""key"":""a"",""event"":""keyup"",""t"":631546},{""key"":""a"",""event"":""keydown"",""t"":631628},{""key"":""a"",""event"":""keyup"",""t"":631698},{""key"":""a"",""event"":""keydown"",""t"":631782},{""key"":""a"",""event"":""keyup"",""t"":631864},{""key"":""a"",""event"":""keydown"",""t"":631950},{""key"":""a"",""event"":""keyup"",""t"":632032},{""key"":""q"",""event"":""keydown"",""t"":632228},{""key"":""q"",""event"":""keyup"",""t"":632302},{""key"":""q"",""event"":""keydown"",""t"":632412},{""key"":""q"",""event"":""keyup"",""t"":632472},{""key"":""q"",""event"":""keydown"",""t"":632574},{""key"":""q"",""event"":""keyup"",""t"":632626},{""key"":""Enter"",""event"":""keydown"",""t"":690976}]","[]"
"315982","","{""creativity-rating"":4,""creativity-free-response"":""It was a good idea that I haven't seen before in other games, guiding a group of birds with your mouse could be a really fun game"",""originality-rating"":4,""originality-free-response"":""The mechanic of moving a group of entities (birds in this case) with your mouse, guiding them, calling them, scattering them, and also controlling how close of eachother they are, is a really original mechanic that I haven't seen before in other games"",""effectiveness-rating"":3,""effectiveness-free-response"":""I encountered a few bugs so that is why I put it at a rating of 3, but overall the game could be really fun if it gets more polished"",""authenticity-rating"":4,""attention-check"":3,""intentionality-rating"":3,""authenticity-intentionality-free-response"":""The main mechanic/idea of this game is really unique but it needs a bit more work put into it, the game is at an extremely early stage, but once it gets polished, it's going to be really fun""}","evaluation-chat-2-murmuration","survey","4","1061900","0.0-4.0","699c8b77fb904ad725023f28","6987c292780adf01bb926159","69a1ed8b9489f978c2b23b7b","","","","",""
"37234","","{""concept-creativity-rating"":5,""concept-implementation-rating"":5,""question1"":null}","concept-chat-2-murmuration","survey","5","1099147","0.0-5.0","699c8b77fb904ad725023f28","6987c292780adf01bb926159","69a1ed8b9489f978c2b23b7b","","","","",""
"2463","You have completed your evaluation of the first video game.<br><br>Press any key to proceed to the second game."," ","pre-game-two-message","html-keyboard-response","6","1101610","0.0-6.0","699c8b77fb904ad725023f28","6987c292780adf01bb926159","69a1ed8b9489f978c2b23b7b","","","","",""
"101658","","","game-chat-4-courier","plugin-game-iframe","7","1203272","0.0-7.0","699c8b77fb904ad725023f28","6987c292780adf01bb926159","69a1ed8b9489f978c2b23b7b","game-complete","{""result"":""win"",""timeLeft"":214.45679999999203,""dialTurns"":189,""shadowEchoesUsed"":83,""exposureIncidents"":2}","null","[{""key"":"" "",""event"":""keyup"",""t"":6},{""key"":""Enter"",""event"":""keydown"",""t"":15066},{""key"":""Enter"",""event"":""keyup"",""t"":15074},{""key"":""d"",""event"":""keydown"",""t"":15776},{""key"":""d"",""event"":""keyup"",""t"":15852},{""key"":""d"",""event"":""keydown"",""t"":16126},{""key"":""d"",""event"":""keyup"",""t"":16416},{""key"":""d"",""event"":""keydown"",""t"":16631},{""key"":""w"",""event"":""keydown"",""t"":16734},{""key"":""d"",""event"":""keyup"",""t"":16770},{""key"":""w"",""event"":""keyup"",""t"":16852},{""key"":""e"",""event"":""keydown"",""t"":17062},{""key"":""e"",""event"":""keyup"",""t"":17186},{""key"":""q"",""event"":""keydown"",""t"":17580},{""key"":""q"",""event"":""keyup"",""t"":17736},{""key"":""e"",""event"":""keydown"",""t"":17926},{""key"":""e"",""event"":""keydown"",""t"":18430},{""key"":""e"",""event"":""keydown"",""t"":18464},{""key"":""e"",""event"":""keyup"",""t"":18480},{""key"":""e"",""event"":""keydown"",""t"":18882},{""key"":""e"",""event"":""keyup"",""t"":19164},{""key"":""e"",""event"":""keydown"",""t"":19522},{""key"":""e"",""event"":""keyup"",""t"":19731},{""key"":""e"",""event"":""keydown"",""t"":19913},{""key"":""e"",""event"":""keyup"",""t"":20250},{""key"":""q"",""event"":""keydown"",""t"":20958},{""key"":""q"",""event"":""keydown"",""t"":21463},{""key"":""q"",""event"":""keydown"",""t"":21496},{""key"":""q"",""event"":""keydown"",""t"":21538},{""key"":""q"",""event"":""keydown"",""t"":21563},{""key"":""q"",""event"":""keydown"",""t"":21596},{""key"":""q"",""event"":""keydown"",""t"":21621},{""key"":""q"",""event"":""keydown"",""t"":21655},{""key"":""q"",""event"":""keydown"",""t"":21688},{""key"":""q"",""event"":""keydown"",""t"":21721},{""key"":""q"",""event"":""keydown"",""t"":21755},{""key"":""q"",""event"":""keydown"",""t"":21788},{""key"":""q"",""event"":""keydown"",""t"":21821},{""key"":""q"",""event"":""keydown"",""t"":21854},{""key"":""q"",""event"":""keydown"",""t"":21888},{""key"":""q"",""event"":""keydown"",""t"":21921},{""key"":""q"",""event"":""keydown"",""t"":21955},{""key"":""q"",""event"":""keydown"",""t"":21988},{""key"":""q"",""event"":""keydown"",""t"":22021},{""key"":""q"",""event"":""keydown"",""t"":22055},{""key"":""q"",""event"":""keydown"",""t"":22088},{""key"":""q"",""event"":""keydown"",""t"":22121},{""key"":""q"",""event"":""keydown"",""t"":22154},{""key"":""q"",""event"":""keydown"",""t"":22188},{""key"":""q"",""event"":""keydown"",""t"":22221},{""key"":""q"",""event"":""keydown"",""t"":22255},{""key"":""q"",""event"":""keydown"",""t"":22288},{""key"":""q"",""event"":""keydown"",""t"":22321},{""key"":""q"",""event"":""keydown"",""t"":22355},{""key"":""q"",""event"":""keydown"",""t"":22388},{""key"":""q"",""event"":""keydown"",""t"":22421},{""key"":""q"",""event"":""keydown"",""t"":22446},{""key"":""q"",""event"":""keydown"",""t"":22488},{""key"":""q"",""event"":""keydown"",""t"":22513},{""key"":""q"",""event"":""keydown"",""t"":22546},{""key"":""q"",""event"":""keydown"",""t"":22588},{""key"":""q"",""event"":""keydown"",""t"":22613},{""key"":""q"",""event"":""keydown"",""t"":22646},{""key"":""q"",""event"":""keyup"",""t"":22680},{""key"":""a"",""event"":""keydown"",""t"":22900},{""key"":""s"",""event"":""keydown"",""t"":23305},{""key"":""a"",""event"":""keyup"",""t"":23479},{""key"":""d"",""event"":""keydown"",""t"":23666},{""key"":""s"",""event"":""keyup"",""t"":23742},{""key"":""d"",""event"":""keyup"",""t"":23798},{""key"":""w"",""event"":""keydown"",""t"":23921},{""key"":""d"",""event"":""keydown"",""t"":24064},{""key"":""w"",""event"":""keyup"",""t"":24384},{""key"":""d"",""event"":""keyup"",""t"":24482},{""key"":""q"",""event"":""keydown"",""t"":24532},{""key"":""q"",""event"":""keyup"",""t"":24940},{""key"":""e"",""event"":""keydown"",""t"":25060},{""key"":""e"",""event"":""keydown"",""t"":25562},{""key"":""e"",""event"":""keydown"",""t"":25595},{""key"":""e"",""event"":""keydown"",""t"":25637},{""key"":""e"",""event"":""keydown"",""t"":25662},{""key"":""e"",""event"":""keydown"",""t"":25695},{""key"":""e"",""event"":""keydown"",""t"":25737},{""key"":""e"",""event"":""keydown"",""t"":25762},{""key"":""e"",""event"":""keydown"",""t"":25795},{""key"":""e"",""event"":""keydown"",""t"":25828},{""key"":""e"",""event"":""keydown"",""t"":25862},{""key"":""e"",""event"":""keydown"",""t"":25895},{""key"":""e"",""event"":""keydown"",""t"":25937},{""key"":""e"",""event"":""keydown"",""t"":25962},{""key"":""e"",""event"":""keydown"",""t"":25995},{""key"":""e"",""event"":""keydown"",""t"":26037},{""key"":""e"",""event"":""keydown"",""t"":26062},{""key"":""e"",""event"":""keydown"",""t"":26095},{""key"":""e"",""event"":""keydown"",""t"":26128},{""key"":""e"",""event"":""keydown"",""t"":26162},{""key"":""e"",""event"":""keydown"",""t"":26195},{""key"":""e"",""event"":""keydown"",""t"":26237},{""key"":""e"",""event"":""keydown"",""t"":26253},{""key"":""e"",""event"":""keydown"",""t"":26287},{""key"":""e"",""event"":""keydown"",""t"":26320},{""key"":""e"",""event"":""keydown"",""t"":26353},{""key"":""e"",""event"":""keydown"",""t"":26387},{""key"":""e"",""event"":""keydown"",""t"":26420},{""key"":""e"",""event"":""keydown"",""t"":26453},{""key"":""e"",""event"":""keydown"",""t"":26487},{""key"":""e"",""event"":""keydown"",""t"":26520},{""key"":""e"",""event"":""keydown"",""t"":26553},{""key"":""e"",""event"":""keydown"",""t"":26587},{""key"":""e"",""event"":""keydown"",""t"":26620},{""key"":""e"",""event"":""keydown"",""t"":26653},{""key"":""e"",""event"":""keydown"",""t"":26687},{""key"":""e"",""event"":""keydown"",""t"":26720},{""key"":""e"",""event"":""keyup"",""t"":26732},{""key"":""d"",""event"":""keydown"",""t"":26842},{""key"":""s"",""event"":""keydown"",""t"":27222},{""key"":""s"",""event"":""keyup"",""t"":27290},{""key"":""d"",""event"":""keyup"",""t"":27414},{""key"":""d"",""event"":""keydown"",""t"":27624},{""key"":""w"",""event"":""keydown"",""t"":27654},{""key"":""w"",""event"":""keyup"",""t"":27766},{""key"":""w"",""event"":""keydown"",""t"":28094},{""key"":""w"",""event"":""keydown"",""t"":28602},{""key"":""w"",""event"":""keydown"",""t"":28628},{""key"":""d"",""event"":""keyup"",""t"":28646},{""key"":""w"",""event"":""keyup"",""t"":28706},{""key"":""d"",""event"":""keydown"",""t"":28938},{""key"":""w"",""event"":""keydown"",""t"":28992},{""key"":""w"",""event"":""keyup"",""t"":29116},{""key"":""d"",""event"":""keyup"",""t"":29122},{""key"":""d"",""event"":""keydown"",""t"":29312},{""key"":""w"",""event"":""keydown"",""t"":29400},{""key"":""d"",""event"":""keyup"",""t"":29594},{""key"":""w"",""event"":""keyup"",""t"":29604},{""key"":""d"",""event"":""keydown"",""t"":29764},{""key"":""d"",""event"":""keyup"",""t"":29920},{""key"":""d"",""event"":""keydown"",""t"":30070},{""key"":""w"",""event"":""keydown"",""t"":30130},{""key"":""d"",""event"":""keyup"",""t"":30200},{""key"":""w"",""event"":""keyup"",""t"":30202},{""key"":""s"",""event"":""keydown"",""t"":30884},{""key"":""a"",""event"":""keydown"",""t"":30900},{""key"":""s"",""event"":""keyup"",""t"":30980},{""key"":""a"",""event"":""keyup"",""t"":31027},{""key"":""q"",""event"":""keydown"",""t"":31506},{""key"":""q"",""event"":""keyup"",""t"":31606},{""key"":""q"",""event"":""keydown"",""t"":31918},{""key"":""q"",""event"":""keyup"",""t"":32068},{""key"":""d"",""event"":""keydown"",""t"":32852},{""key"":""d"",""event"":""keyup"",""t"":32926},{""key"":""q"",""event"":""keydown"",""t"":34774},{""key"":""q"",""event"":""keyup"",""t"":35178},{""key"":""d"",""event"":""keydown"",""t"":35386},{""key"":""d"",""event"":""keyup"",""t"":35524},{""key"":""s"",""event"":""keydown"",""t"":36244},{""key"":""a"",""event"":""keydown"",""t"":36452},{""key"":""s"",""event"":""keyup"",""t"":36486},{""key"":""a"",""event"":""keyup"",""t"":36540},{""key"":""e"",""event"":""keydown"",""t"":37098},{""key"":""e"",""event"":""keyup"",""t"":37406},{""key"":""w"",""event"":""keydown"",""t"":37520},{""key"":""e"",""event"":""keydown"",""t"":37606},{""key"":""w"",""event"":""keyup"",""t"":37638},{""key"":""e"",""event"":""keyup"",""t"":37666},{""key"":""a"",""event"":""keydown"",""t"":37832},{""key"":""a"",""event"":""keyup"",""t"":38050},{""key"":""d"",""event"":""keydown"",""t"":38342},{""key"":""d"",""event"":""keyup"",""t"":38412},{""key"":""q"",""event"":""keydown"",""t"":39594},{""key"":""w"",""event"":""keydown"",""t"":39600},{""key"":""a"",""event"":""keydown"",""t"":39606},{""key"":""a"",""event"":""keydown"",""t"":40111},{""key"":""a"",""event"":""keydown"",""t"":40143},{""key"":""a"",""event"":""keydown"",""t"":40174},{""key"":""a"",""event"":""keydown"",""t"":40216},{""key"":""a"",""event"":""keydown"",""t"":40249},{""key"":""q"",""event"":""keyup"",""t"":40268},{""key"":""a"",""event"":""keyup"",""t"":40270},{""key"":""w"",""event"":""keyup"",""t"":40404},{""key"":""w"",""event"":""keydown"",""t"":40446},{""key"":""d"",""event"":""keydown"",""t"":40526},{""key"":""w"",""event"":""keyup"",""t"":40799},{""key"":""d"",""event"":""keyup"",""t"":40804},{""key"":""w"",""event"":""keydown"",""t"":41068},{""key"":""d"",""event"":""keydown"",""t"":41086},{""key"":""a"",""event"":""keydown"",""t"":41164},{""key"":""d"",""event"":""keyup"",""t"":41191},{""key"":""a"",""event"":""keyup"",""t"":41344},{""key"":""a"",""event"":""keydown"",""t"":41612},{""key"":""w"",""event"":""keyup"",""t"":41712},{""key"":""a"",""event"":""keyup"",""t"":41720},{""key"":""w"",""event"":""keydown"",""t"":41878},{""key"":""a"",""event"":""keydown"",""t"":41954},{""key"":""a"",""event"":""keyup"",""t"":41972},{""key"":""d"",""event"":""keydown"",""t"":42692},{""key"":""d"",""event"":""keyup"",""t"":42786},{""key"":""w"",""event"":""keyup"",""t"":42864},{""key"":""d"",""event"":""keydown"",""t"":43268},{""key"":""s"",""event"":""keydown"",""t"":43484},{""key"":""d"",""event"":""keyup"",""t"":43702},{""key"":""s"",""event"":""keyup"",""t"":43708},{""key"":""d"",""event"":""keydown"",""t"":43930},{""key"":""d"",""event"":""keyup"",""t"":44036},{""key"":""a"",""event"":""keydown"",""t"":44506},{""key"":""a"",""event"":""keyup"",""t"":44644},{""key"":""e"",""event"":""keydown"",""t"":45230},{""key"":""e"",""event"":""keydown"",""t"":45741},{""key"":""e"",""event"":""keydown"",""t"":45773},{""key"":""e"",""event"":""keydown"",""t"":45804},{""key"":""e"",""event"":""keydown"",""t"":45836},{""key"":""e"",""event"":""keydown"",""t"":45866},{""key"":""e"",""event"":""keydown"",""t"":45899},{""key"":""e"",""event"":""keydown"",""t"":45930},{""key"":""e"",""event"":""keydown"",""t"":45961},{""key"":""e"",""event"":""keydown"",""t"":46007},{""key"":""e"",""event"":""keydown"",""t"":46038},{""key"":""e"",""event"":""keydown"",""t"":46069},{""key"":""e"",""event"":""keydown"",""t"":46100},{""key"":""e"",""event"":""keydown"",""t"":46131},{""key"":""e"",""event"":""keydown"",""t"":46163},{""key"":""e"",""event"":""keydown"",""t"":46195},{""key"":""e"",""event"":""keydown"",""t"":46229},{""key"":""e"",""event"":""keydown"",""t"":46260},{""key"":""e"",""event"":""keydown"",""t"":46291},{""key"":""e"",""event"":""keydown"",""t"":46338},{""key"":""e"",""event"":""keydown"",""t"":46370},{""key"":""e"",""event"":""keydown"",""t"":46402},{""key"":""e"",""event"":""keydown"",""t"":46432},{""key"":""e"",""event"":""keydown"",""t"":46465},{""key"":""e"",""event"":""keydown"",""t"":46496},{""key"":""e"",""event"":""keydown"",""t"":46526},{""key"":""e"",""event"":""keydown"",""t"":46558},{""key"":""e"",""event"":""keydown"",""t"":46589},{""key"":""e"",""event"":""keyup"",""t"":46620},{""key"":""q"",""event"":""keydown"",""t"":51472},{""key"":""q"",""event"":""keydown"",""t"":51978},{""key"":""q"",""event"":""keydown"",""t"":52009},{""key"":""q"",""event"":""keydown"",""t"":52041},{""key"":""q"",""event"":""keydown"",""t"":52071},{""key"":""q"",""event"":""keydown"",""t"":52117},{""key"":""q"",""event"":""keydown"",""t"":52149},{""key"":""q"",""event"":""keydown"",""t"":52181},{""key"":""q"",""event"":""keydown"",""t"":52213},{""key"":""q"",""event"":""keydown"",""t"":52246},{""key"":""q"",""event"":""keydown"",""t"":52276},{""key"":""q"",""event"":""keydown"",""t"":52307},{""key"":""q"",""event"":""keydown"",""t"":52338},{""key"":""q"",""event"":""keydown"",""t"":52369},{""key"":""q"",""event"":""keydown"",""t"":52415},{""key"":""q"",""event"":""keydown"",""t"":52446},{""key"":""q"",""event"":""keydown"",""t"":52478},{""key"":""q"",""event"":""keydown"",""t"":52508},{""key"":""q"",""event"":""keydown"",""t"":52539},{""key"":""q"",""event"":""keydown"",""t"":52571},{""key"":""q"",""event"":""keydown"",""t"":52601},{""key"":""q"",""event"":""keydown"",""t"":52632},{""key"":""q"",""event"":""keydown"",""t"":52664},{""key"":""q"",""event"":""keydown"",""t"":52711},{""key"":""q"",""event"":""keydown"",""t"":52742},{""key"":""q"",""event"":""keydown"",""t"":52774},{""key"":""q"",""event"":""keydown"",""t"":52805},{""key"":""q"",""event"":""keydown"",""t"":52835},{""key"":""q"",""event"":""keydown"",""t"":52866},{""key"":""q"",""event"":""keydown"",""t"":52897},{""key"":""q"",""event"":""keydown"",""t"":52929},{""key"":""q"",""event"":""keydown"",""t"":52974},{""key"":""q"",""event"":""keydown"",""t"":53005},{""key"":""q"",""event"":""keydown"",""t"":53038},{""key"":""q"",""event"":""keydown"",""t"":53067},{""key"":""q"",""event"":""keydown"",""t"":53098},{""key"":""q"",""event"":""keydown"",""t"":53130},{""key"":""q"",""event"":""keyup"",""t"":53132},{""key"":""a"",""event"":""keydown"",""t"":54537},{""key"":""s"",""event"":""keydown"",""t"":54562},{""key"":""a"",""event"":""keyup"",""t"":54824},{""key"":""d"",""event"":""keydown"",""t"":55240},{""key"":""s"",""event"":""keyup"",""t"":55526},{""key"":""d"",""event"":""keyup"",""t"":55542},{""key"":""s"",""event"":""keydown"",""t"":55860},{""key"":""s"",""event"":""keyup"",""t"":55990},{""key"":""d"",""event"":""keydown"",""t"":56264},{""key"":""d"",""event"":""keyup"",""t"":56334},{""key"":""d"",""event"":""keydown"",""t"":56892},{""key"":""s"",""event"":""keydown"",""t"":57080},{""key"":""s"",""event"":""keyup"",""t"":57162},{""key"":""w"",""event"":""keydown"",""t"":57711},{""key"":""w"",""event"":""keyup"",""t"":57854},{""key"":""d"",""event"":""keyup"",""t"":58511},{""key"":""d"",""event"":""keydown"",""t"":58732},{""key"":""s"",""event"":""keydown"",""t"":58824},{""key"":""d"",""event"":""keyup"",""t"":58838},{""key"":""s"",""event"":""keyup"",""t"":58862},{""key"":""e"",""event"":""keydown"",""t"":59740},{""key"":""e"",""event"":""keyup"",""t"":59874},{""key"":""e"",""event"":""keydown"",""t"":60020},{""key"":""e"",""event"":""keyup"",""t"":60238},{""key"":""e"",""event"":""keydown"",""t"":60588},{""key"":""e"",""event"":""keyup"",""t"":60840},{""key"":""e"",""event"":""keydown"",""t"":61352},{""key"":""e"",""event"":""keyup"",""t"":61390},{""key"":""s"",""event"":""keydown"",""t"":61792},{""key"":""s"",""event"":""keyup"",""t"":61888},{""key"":""s"",""event"":""keydown"",""t"":62070},{""key"":""s"",""event"":""keydown"",""t"":62571},{""key"":""s"",""event"":""keydown"",""t"":62618},{""key"":""s"",""event"":""keyup"",""t"":62642},{""key"":""w"",""event"":""keydown"",""t"":62748},{""key"":""a"",""event"":""keydown"",""t"":62962},{""key"":""a"",""event"":""keyup"",""t"":63012},{""key"":""w"",""event"":""keyup"",""t"":63394},{""key"":""q"",""event"":""keydown"",""t"":63472},{""key"":""q"",""event"":""keyup"",""t"":63690},{""key"":""d"",""event"":""keydown"",""t"":64190},{""key"":""d"",""event"":""keyup"",""t"":64270},{""key"":""d"",""event"":""keydown"",""t"":64426},{""key"":""d"",""event"":""keyup"",""t"":64552},{""key"":""s"",""event"":""keydown"",""t"":64601},{""key"":""d"",""event"":""keydown"",""t"":64660},{""key"":""s"",""event"":""keyup"",""t"":64762},{""key"":""d"",""event"":""keyup"",""t"":64776},{""key"":""d"",""event"":""keydown"",""t"":64893},{""key"":""s"",""event"":""keydown"",""t"":64914},{""key"":""d"",""event"":""keyup"",""t"":64986},{""key"":""s"",""event"":""keyup"",""t"":65042},{""key"":""s"",""event"":""keydown"",""t"":65254},{""key"":""d"",""event"":""keydown"",""t"":65294},{""key"":""d"",""event"":""keyup"",""t"":65359},{""key"":""s"",""event"":""keyup"",""t"":65364},{""key"":""s"",""event"":""keydown"",""t"":65688},{""key"":""s"",""event"":""keyup"",""t"":65742},{""key"":""d"",""event"":""keydown"",""t"":67910},{""key"":""s"",""event"":""keydown"",""t"":67938},{""key"":""s"",""event"":""keyup"",""t"":68234},{""key"":""s"",""event"":""keydown"",""t"":68738},{""key"":""s"",""event"":""keydown"",""t"":69248},{""key"":""s"",""event"":""keydown"",""t"":69280},{""key"":""s"",""event"":""keydown"",""t"":69311},{""key"":""s"",""event"":""keyup"",""t"":69328},{""key"":""w"",""event"":""keydown"",""t"":69738},{""key"":""d"",""event"":""keyup"",""t"":69796},{""key"":""w"",""event"":""keyup"",""t"":69844},{""key"":""q"",""event"":""keydown"",""t"":70218},{""key"":""q"",""event"":""keydown"",""t"":70725},{""key"":""q"",""event"":""keydown"",""t"":70758},{""key"":""q"",""event"":""keydown"",""t"":70788},{""key"":""q"",""event"":""keydown"",""t"":70818},{""key"":""q"",""event"":""keydown"",""t"":70865},{""key"":""q"",""event"":""keydown"",""t"":70895},{""key"":""q"",""event"":""keydown"",""t"":70926},{""key"":""q"",""event"":""keydown"",""t"":70958},{""key"":""q"",""event"":""keydown"",""t"":70989},{""key"":""q"",""event"":""keydown"",""t"":71020},{""key"":""q"",""event"":""keydown"",""t"":71050},{""key"":""q"",""event"":""keyup"",""t"":71070},{""key"":""e"",""event"":""keydown"",""t"":72412},{""key"":""e"",""event"":""keydown"",""t"":72927},{""key"":""e"",""event"":""keydown"",""t"":72959},{""key"":""e"",""event"":""keydown"",""t"":72989},{""key"":""e"",""event"":""keydown"",""t"":73021},{""key"":""e"",""event"":""keydown"",""t"":73052},{""key"":""e"",""event"":""keydown"",""t"":73083},{""key"":""e"",""event"":""keydown"",""t"":73114},{""key"":""e"",""event"":""keydown"",""t"":73145},{""key"":""e"",""event"":""keydown"",""t"":73191},{""key"":""e"",""event"":""keydown"",""t"":73221},{""key"":""e"",""event"":""keydown"",""t"":73252},{""key"":""e"",""event"":""keydown"",""t"":73284},{""key"":""e"",""event"":""keydown"",""t"":73315},{""key"":""e"",""event"":""keydown"",""t"":73346},{""key"":""e"",""event"":""keydown"",""t"":73377},{""key"":""e"",""event"":""keydown"",""t"":73408},{""key"":""e"",""event"":""keydown"",""t"":73440},{""key"":""e"",""event"":""keydown"",""t"":73486},{""key"":""e"",""event"":""keydown"",""t"":73517},{""key"":""e"",""event"":""keydown"",""t"":73549},{""key"":""e"",""event"":""keydown"",""t"":73578},{""key"":""e"",""event"":""keydown"",""t"":73609},{""key"":""e"",""event"":""keydown"",""t"":73641},{""key"":""e"",""event"":""keydown"",""t"":73672},{""key"":""e"",""event"":""keydown"",""t"":73717},{""key"":""e"",""event"":""keydown"",""t"":73749},{""key"":""e"",""event"":""keydown"",""t"":73780},{""key"":""e"",""event"":""keydown"",""t"":73811},{""key"":""e"",""event"":""keydown"",""t"":73842},{""key"":""e"",""event"":""keydown"",""t"":73874},{""key"":""e"",""event"":""keydown"",""t"":73906},{""key"":""e"",""event"":""keydown"",""t"":73936},{""key"":""e"",""event"":""keydown"",""t"":73983},{""key"":""e"",""event"":""keydown"",""t"":74015},{""key"":""e"",""event"":""keydown"",""t"":74047},{""key"":""e"",""event"":""keydown"",""t"":74077},{""key"":""e"",""event"":""keydown"",""t"":74108},{""key"":""e"",""event"":""keydown"",""t"":74140},{""key"":""e"",""event"":""keyup"",""t"":74166},{""key"":""q"",""event"":""keydown"",""t"":74328},{""key"":""q"",""event"":""keydown"",""t"":74833},{""key"":""q"",""event"":""keydown"",""t"":74865},{""key"":""q"",""event"":""keydown"",""t"":74895},{""key"":""q"",""event"":""keydown"",""t"":74942},{""key"":""q"",""event"":""keydown"",""t"":74974},{""key"":""q"",""event"":""keydown"",""t"":75003},{""key"":""q"",""event"":""keydown"",""t"":75034},{""key"":""q"",""event"":""keydown"",""t"":75065},{""key"":""q"",""event"":""keydown"",""t"":75096},{""key"":""q"",""event"":""keydown"",""t"":75128},{""key"":""q"",""event"":""keydown"",""t"":75159},{""key"":""q"",""event"":""keydown"",""t"":75206},{""key"":""q"",""event"":""keydown"",""t"":75236},{""key"":""q"",""event"":""keydown"",""t"":75267},{""key"":""q"",""event"":""keydown"",""t"":75298},{""key"":""q"",""event"":""keydown"",""t"":75330},{""key"":""q"",""event"":""keydown"",""t"":75361},{""key"":""q"",""event"":""keydown"",""t"":75393},{""key"":""q"",""event"":""keydown"",""t"":75424},{""key"":""q"",""event"":""keydown"",""t"":75455},{""key"":""q"",""event"":""keydown"",""t"":75501},{""key"":""q"",""event"":""keydown"",""t"":75532},{""key"":""q"",""event"":""keydown"",""t"":75565},{""key"":""q"",""event"":""keydown"",""t"":75595},{""key"":""q"",""event"":""keydown"",""t"":75626},{""key"":""q"",""event"":""keydown"",""t"":75657},{""key"":""q"",""event"":""keydown"",""t"":75688},{""key"":""q"",""event"":""keydown"",""t"":75734},{""key"":""q"",""event"":""keydown"",""t"":75765},{""key"":""q"",""event"":""keydown"",""t"":75797},{""key"":""q"",""event"":""keydown"",""t"":75827},{""key"":""q"",""event"":""keydown"",""t"":75858},{""key"":""q"",""event"":""keydown"",""t"":75890},{""key"":""q"",""event"":""keydown"",""t"":75921},{""key"":""q"",""event"":""keydown"",""t"":75952},{""key"":""q"",""event"":""keydown"",""t"":75983},{""key"":""q"",""event"":""keyup"",""t"":76028},{""key"":""e"",""event"":""keydown"",""t"":76898},{""key"":""e"",""event"":""keyup"",""t"":77008},{""key"":""q"",""event"":""keydown"",""t"":77412},{""key"":""q"",""event"":""keyup"",""t"":77786},{""key"":""w"",""event"":""keydown"",""t"":77984},{""key"":""w"",""event"":""keyup"",""t"":78232},{""key"":""a"",""event"":""keydown"",""t"":78339},{""key"":""w"",""event"":""keydown"",""t"":78422},{""key"":""w"",""event"":""keyup"",""t"":78528},{""key"":""a"",""event"":""keyup"",""t"":78536},{""key"":""a"",""event"":""keydown"",""t"":78754},{""key"":""w"",""event"":""keydown"",""t"":78762},{""key"":""w"",""event"":""keyup"",""t"":78944},{""key"":""a"",""event"":""keyup"",""t"":79040},{""key"":""w"",""event"":""keydown"",""t"":79330},{""key"":""a"",""event"":""keydown"",""t"":79344},{""key"":""w"",""event"":""keyup"",""t"":79426},{""key"":""a"",""event"":""keyup"",""t"":79434},{""key"":""w"",""event"":""keydown"",""t"":80938},{""key"":""a"",""event"":""keydown"",""t"":81400},{""key"":""a"",""event"":""keydown"",""t"":81911},{""key"":""w"",""event"":""keyup"",""t"":81934},{""key"":""s"",""event"":""keydown"",""t"":82338},{""key"":""s"",""event"":""keyup"",""t"":82392},{""key"":""a"",""event"":""keyup"",""t"":82396},{""key"":""s"",""event"":""keydown"",""t"":82704},{""key"":""s"",""event"":""keyup"",""t"":82784},{""key"":""d"",""event"":""keydown"",""t"":84962},{""key"":""w"",""event"":""keydown"",""t"":84982},{""key"":""w"",""event"":""keyup"",""t"":85095},{""key"":""w"",""event"":""keydown"",""t"":85712},{""key"":""a"",""event"":""keydown"",""t"":86116},{""key"":""w"",""event"":""keyup"",""t"":86148},{""key"":""d"",""event"":""keyup"",""t"":86154},{""key"":""s"",""event"":""keydown"",""t"":86254},{""key"":""s"",""event"":""keyup"",""t"":86516},{""key"":""s"",""event"":""keydown"",""t"":86900},{""key"":""s"",""event"":""keyup"",""t"":87180},{""key"":""a"",""event"":""keyup"",""t"":87346},{""key"":""q"",""event"":""keydown"",""t"":88511},{""key"":""q"",""event"":""keyup"",""t"":88608},{""key"":""q"",""event"":""keydown"",""t"":88753},{""key"":""q"",""event"":""keyup"",""t"":88920},{""key"":""Shift"",""event"":""keydown"",""t"":95438},{""key"":""Shift"",""event"":""keyup"",""t"":95458},{""key"":""Shift"",""event"":""keydown"",""t"":95701},{""key"":""Shift"",""event"":""keyup"",""t"":95860},{""key"":""Shift"",""event"":""keydown"",""t"":96184},{""key"":""Shift"",""event"":""keyup"",""t"":96301},{""key"":""d"",""event"":""keydown"",""t"":98042},{""key"":""w"",""event"":""keydown"",""t"":98062},{""key"":""Shift"",""event"":""keydown"",""t"":98090},{""key"":""W"",""event"":""keyup"",""t"":98414},{""key"":""W"",""event"":""keydown"",""t"":98676},{""key"":""W"",""event"":""keyup"",""t"":98996},{""key"":""W"",""event"":""keydown"",""t"":99410},{""key"":""W"",""event"":""keyup"",""t"":99525},{""key"":""A"",""event"":""keydown"",""t"":99640},{""key"":""D"",""event"":""keyup"",""t"":99650},{""key"":""S"",""event"":""keydown"",""t"":99876},{""key"":""S"",""event"":""keyup"",""t"":99974},{""key"":""S"",""event"":""keydown"",""t"":100270},{""key"":""S"",""event"":""keyup"",""t"":100483},{""key"":""S"",""event"":""keydown"",""t"":100732},{""key"":""S"",""event"":""keyup"",""t"":100902},{""key"":""Shift"",""event"":""keyup"",""t"":100933},{""key"":""a"",""event"":""keyup"",""t"":100964},{""key"":""Enter"",""event"":""keydown"",""t"":101656}]","[]"
"190345","","{""creativity-rating"":5,""creativity-free-response"":""It is extremely creative in that you not only control the main character, but you also control the enviroment to be able to complete the level"",""originality-rating"":4,""originality-free-response"":""Controlling the enviroment to complete your objective feels very original"",""effectiveness-rating"":4,""effectiveness-free-response"":""the exposure meter was a bit fast but overall the game was very enjoyable"",""authenticity-rating"":4,""attention-check"":3,""intentionality-rating"":4,""authenticity-intentionality-free-response"":""The core mechanics are great, they are very authentic, but it needs a bit more effort ""}","evaluation-chat-4-courier","survey","8","1393634","0.0-8.0","699c8b77fb904ad725023f28","6987c292780adf01bb926159","69a1ed8b9489f978c2b23b7b","","","","",""
"26078","","{""concept-creativity-rating"":5,""concept-implementation-rating"":5,""question1"":null}","concept-chat-4-courier","survey","9","1419721","0.0-9.0","699c8b77fb904ad725023f28","6987c292780adf01bb926159","69a1ed8b9489f978c2b23b7b","","","","",""
"2453","You have completed your evaluation of the second video game.<br><br>Press any key to proceed to the final game.","enter","pre-game-three-message","html-keyboard-response","10","1422175","0.0-10.0","699c8b77fb904ad725023f28","6987c292780adf01bb926159","69a1ed8b9489f978c2b23b7b","","","","",""
"22867","","","game-gemini-3-suture","plugin-game-iframe","11","1445048","0.0-11.0","699c8b77fb904ad725023f28","6987c292780adf01bb926159","69a1ed8b9489f978c2b23b7b","game-complete","{""result"":""win"",""levelsCompleted"":52}","null","[{""key"":""Enter"",""event"":""keyup"",""t"":1},{""key"":""d"",""event"":""keydown"",""t"":2573},{""key"":""d"",""event"":""keyup"",""t"":2723},{""key"":""ArrowUp"",""event"":""keydown"",""t"":5907},{""key"":""ArrowRight"",""event"":""keydown"",""t"":6021},{""key"":""ArrowUp"",""event"":""keyup"",""t"":6079},{""key"":""ArrowRight"",""event"":""keyup"",""t"":6182},{""key"":""ArrowRight"",""event"":""keydown"",""t"":9812},{""key"":""ArrowRight"",""event"":""keydown"",""t"":10314},{""key"":""ArrowRight"",""event"":""keydown"",""t"":10347},{""key"":""ArrowRight"",""event"":""keydown"",""t"":10389},{""key"":""ArrowRight"",""event"":""keydown"",""t"":10413},{""key"":""ArrowRight"",""event"":""keydown"",""t"":10446},{""key"":""ArrowRight"",""event"":""keydown"",""t"":10479},{""key"":""ArrowRight"",""event"":""keydown"",""t"":10513},{""key"":""ArrowRight"",""event"":""keydown"",""t"":10547},{""key"":""ArrowRight"",""event"":""keydown"",""t"":10581},{""key"":""ArrowRight"",""event"":""keydown"",""t"":10613},{""key"":""ArrowRight"",""event"":""keydown"",""t"":10646},{""key"":""ArrowRight"",""event"":""keydown"",""t"":10681},{""key"":""ArrowRight"",""event"":""keydown"",""t"":10714},{""key"":""ArrowRight"",""event"":""keydown"",""t"":10747},{""key"":""ArrowRight"",""event"":""keydown"",""t"":10787},{""key"":""ArrowRight"",""event"":""keydown"",""t"":10813},{""key"":""ArrowRight"",""event"":""keydown"",""t"":10847},{""key"":""ArrowRight"",""event"":""keydown"",""t"":10881},{""key"":""ArrowRight"",""event"":""keyup"",""t"":10896},{""key"":""ArrowUp"",""event"":""keydown"",""t"":10972},{""key"":""ArrowLeft"",""event"":""keydown"",""t"":10974},{""key"":""ArrowLeft"",""event"":""keyup"",""t"":11338},{""key"":""ArrowUp"",""event"":""keyup"",""t"":11369},{""key"":""ArrowLeft"",""event"":""keydown"",""t"":11632},{""key"":""ArrowLeft"",""event"":""keyup"",""t"":11798},{""key"":""ArrowUp"",""event"":""keydown"",""t"":13568},{""key"":""ArrowRight"",""event"":""keydown"",""t"":13582},{""key"":""ArrowRight"",""event"":""keydown"",""t"":14088},{""key"":""ArrowUp"",""event"":""keyup"",""t"":14088},{""key"":""ArrowRight"",""event"":""keydown"",""t"":14595},{""key"":""ArrowRight"",""event"":""keydown"",""t"":14629},{""key"":""ArrowRight"",""event"":""keydown"",""t"":14662},{""key"":""ArrowRight"",""event"":""keydown"",""t"":14695},{""key"":""ArrowRight"",""event"":""keydown"",""t"":14737},{""key"":""ArrowRight"",""event"":""keydown"",""t"":14754},{""key"":""ArrowRight"",""event"":""keydown"",""t"":14787},{""key"":""ArrowRight"",""event"":""keydown"",""t"":14820},{""key"":""ArrowRight"",""event"":""keydown"",""t"":14853},{""key"":""ArrowRight"",""event"":""keydown"",""t"":14887},{""key"":""ArrowRight"",""event"":""keydown"",""t"":14921},{""key"":""ArrowRight"",""event"":""keydown"",""t"":14954},{""key"":""ArrowRight"",""event"":""keydown"",""t"":14987},{""key"":""ArrowRight"",""event"":""keydown"",""t"":15021},{""key"":""ArrowRight"",""event"":""keydown"",""t"":15054},{""key"":""ArrowRight"",""event"":""keydown"",""t"":15087},{""key"":""ArrowRight"",""event"":""keydown"",""t"":15120},{""key"":""ArrowRight"",""event"":""keydown"",""t"":15155},{""key"":""ArrowRight"",""event"":""keydown"",""t"":15188},{""key"":""ArrowRight"",""event"":""keydown"",""t"":15221},{""key"":""ArrowRight"",""event"":""keydown"",""t"":15254},{""key"":""ArrowRight"",""event"":""keydown"",""t"":15287},{""key"":""ArrowRight"",""event"":""keydown"",""t"":15320},{""key"":""ArrowRight"",""event"":""keydown"",""t"":15354},{""key"":""ArrowRight"",""event"":""keydown"",""t"":15388},{""key"":""ArrowRight"",""event"":""keydown"",""t"":15423},{""key"":""ArrowRight"",""event"":""keydown"",""t"":15454},{""key"":""ArrowRight"",""event"":""keydown"",""t"":15487},{""key"":""ArrowRight"",""event"":""keydown"",""t"":15520},{""key"":""ArrowRight"",""event"":""keydown"",""t"":15546},{""key"":""ArrowRight"",""event"":""keydown"",""t"":15579},{""key"":""ArrowRight"",""event"":""keydown"",""t"":15612},{""key"":""ArrowRight"",""event"":""keydown"",""t"":15645},{""key"":""ArrowRight"",""event"":""keydown"",""t"":15679},{""key"":""ArrowRight"",""event"":""keydown"",""t"":15712},{""key"":""ArrowRight"",""event"":""keydown"",""t"":15746},{""key"":""ArrowRight"",""event"":""keydown"",""t"":15779},{""key"":""ArrowRight"",""event"":""keydown"",""t"":15812},{""key"":""ArrowRight"",""event"":""keydown"",""t"":15846},{""key"":""ArrowRight"",""event"":""keydown"",""t"":15879},{""key"":""ArrowRight"",""event"":""keydown"",""t"":15912},{""key"":""ArrowRight"",""event"":""keydown"",""t"":15945},{""key"":""ArrowRight"",""event"":""keydown"",""t"":15978},{""key"":""ArrowRight"",""event"":""keydown"",""t"":16012},{""key"":""ArrowRight"",""event"":""keydown"",""t"":16046},{""key"":""ArrowRight"",""event"":""keydown"",""t"":16079},{""key"":""ArrowRight"",""event"":""keydown"",""t"":16112},{""key"":""ArrowRight"",""event"":""keydown"",""t"":16145},{""key"":""ArrowRight"",""event"":""keydown"",""t"":16179},{""key"":""ArrowRight"",""event"":""keydown"",""t"":16212},{""key"":""ArrowRight"",""event"":""keydown"",""t"":16245},{""key"":""ArrowRight"",""event"":""keydown"",""t"":16279},{""key"":""ArrowRight"",""event"":""keydown"",""t"":16312},{""key"":""ArrowRight"",""event"":""keyup"",""t"":16318},{""key"":""ArrowUp"",""event"":""keydown"",""t"":16850},{""key"":""ArrowUp"",""event"":""keyup"",""t"":16936},{""key"":""Enter"",""event"":""keydown"",""t"":22860},{""key"":""Enter"",""event"":""keyup"",""t"":22862}]","[]"
"218218","","{""creativity-rating"":3,""creativity-free-response"":""There are several games that requires you to \""slash\"" the screen to make the level possible to complete, be it making bridges, destroying obstacles, etc"",""originality-rating"":3,""originality-free-response"":""I've seen games that uses the mechanic this game has, but that doesn't mean that is a bad game"",""effectiveness-rating"":2,""effectiveness-free-response"":""It was very simple and short, Didn't get enough time to experiment with it"",""authenticity-rating"":3,""attention-check"":3,""intentionality-rating"":3,""authenticity-intentionality-free-response"":""It's an idea that several games already use, the demo was really short and simple""}","evaluation-gemini-3-suture","survey","12","1663283","0.0-12.0","699c8b77fb904ad725023f28","6987c292780adf01bb926159","69a1ed8b9489f978c2b23b7b","","","","",""
"24939","","{""concept-creativity-rating"":3,""concept-implementation-rating"":2,""question1"":null}","concept-gemini-3-suture","survey","13","1688232","0.0-13.0","699c8b77fb904ad725023f28","6987c292780adf01bb926159","69a1ed8b9489f978c2b23b7b","","","","",""
"3631","You have completed all of the games!<br><br>Press any key to proceed to some final questions before returning to Prolific.","enter","pre-baseline-questions","html-keyboard-response","14","1691864","0.0-14.0","699c8b77fb904ad725023f28","6987c292780adf01bb926159","69a1ed8b9489f978c2b23b7b","","","","",""
"16099","","{""baseline_originality_rating"":5,""baseline_effectiveness_rating"":4,""baseline_authenticity_rating"":5,""baseline_intentionality_rating"":5}","baseline-questions-rating","survey","15","1707973","0.0-15.0","699c8b77fb904ad725023f28","6987c292780adf01bb926159","69a1ed8b9489f978c2b23b7b","","","","",""
"48589","","{""ai_aware_question"":""Not at all, I feel like AI is a very powerful tool for making video games I don't have any problem with AI making games such as this""}","ai-aware-question","survey","16","1756567","0.0-16.0","699c8b77fb904ad725023f28","6987c292780adf01bb926159","69a1ed8b9489f978c2b23b7b","","","","",""
"5877","
        <p> You have completed the experiment! Press any key to save your data and get redirected back to Prolific. <strong>Please do not close the page until you have been redirected to Prolific.</strong> <p>
      ","enter","goodbye","html-keyboard-response","17","1762444","0.0-17.0","699c8b77fb904ad725023f28","6987c292780adf01bb926159","69a1ed8b9489f978c2b23b7b","","","","",""
