"rt","stimulus","response","phase","trial_type","trial_index","time_elapsed","internal_node_id","prolific_subject_id","study_id","session_id","exit_reason","exit_stage","exit_progress","game_data","emergency_text","keystrokes","mouse_events"
"2989","Welcome!<br><br>In this study, you will play three short video games that were generated by Artificial Intelligence (AI) and complete a short survey after each game.<br><br>Please make sure you are in a quiet environment where you can focus for the duration of the study. Some games may use sound, so please ensure that your device's volume is not muted.<br><br>Press any key to begin."," ","welcome-message","html-keyboard-response","0","2994","0.0-0.0","6501b789e3ddbc0a0b79b925","6987c292780adf01bb926159","69a4fcc2888d846e7607a041","","","","","","",""
"47875","","{""commitment-check"":[""yes""]}","commitment-check","survey","1","50886","0.0-1.0","6501b789e3ddbc0a0b79b925","6987c292780adf01bb926159","69a4fcc2888d846e7607a041","","","","","","",""
"51048","Press any key to proceed to the first video game. Should you encounter a game-breaking bug, please report the issue in the Menu tab to the right of the screen."," ","pre-game-one-message","html-keyboard-response","2","101934","0.0-2.0","6501b789e3ddbc0a0b79b925","6987c292780adf01bb926159","69a4fcc2888d846e7607a041","","","","","","",""
"149279","","","game-chat-1-echo","plugin-game-iframe","3","251222","0.0-3.0","6501b789e3ddbc0a0b79b925","6987c292780adf01bb926159","69a4fcc2888d846e7607a041","emergency-exit","ended:lose","{""stage"":""ended:lose"",""detail"":{""gameState"":""LOSE"",""relicCollected"":true,""exitOpen"":true,""alertsCount"":12,""timeLeftMs"":259699.85000001328}}","null","crashed","[{""key"":"" "",""event"":""keyup"",""t"":108},{""key"":"" "",""event"":""keydown"",""t"":5434},{""key"":"" "",""event"":""keyup"",""t"":5555},{""key"":""w"",""event"":""keydown"",""t"":9822},{""key"":""w"",""event"":""keydown"",""t"":10331},{""key"":""w"",""event"":""keyup"",""t"":10364},{""key"":""r"",""event"":""keydown"",""t"":12397},{""key"":""r"",""event"":""keyup"",""t"":12557},{""key"":""s"",""event"":""keydown"",""t"":14981},{""key"":""s"",""event"":""keyup"",""t"":15187},{""key"":""s"",""event"":""keydown"",""t"":16768},{""key"":""s"",""event"":""keyup"",""t"":17088},{""key"":""a"",""event"":""keydown"",""t"":17656},{""key"":""a"",""event"":""keyup"",""t"":18003},{""key"":""CapsLock"",""event"":""keydown"",""t"":18364},{""key"":""CapsLock"",""event"":""keyup"",""t"":18797},{""key"":""a"",""event"":""keydown"",""t"":19677},{""key"":""a"",""event"":""keyup"",""t"":20086},{""key"":""a"",""event"":""keydown"",""t"":20121},{""key"":""a"",""event"":""keyup"",""t"":20147},{""key"":""a"",""event"":""keydown"",""t"":20286},{""key"":""a"",""event"":""keyup"",""t"":20613},{""key"":""w"",""event"":""keydown"",""t"":20947},{""key"":""w"",""event"":""keydown"",""t"":21435},{""key"":""w"",""event"":""keydown"",""t"":21519},{""key"":""w"",""event"":""keyup"",""t"":21580},{""key"":""d"",""event"":""keydown"",""t"":21641},{""key"":""d"",""event"":""keyup"",""t"":22080},{""key"":""d"",""event"":""keydown"",""t"":22447},{""key"":""d"",""event"":""keyup"",""t"":22619},{""key"":""r"",""event"":""keydown"",""t"":25921},{""key"":""r"",""event"":""keyup"",""t"":26019},{""key"":""d"",""event"":""keydown"",""t"":26952},{""key"":""d"",""event"":""keydown"",""t"":27453},{""key"":""d"",""event"":""keydown"",""t"":27547},{""key"":""d"",""event"":""keydown"",""t"":27622},{""key"":""d"",""event"":""keydown"",""t"":27705},{""key"":""d"",""event"":""keydown"",""t"":27789},{""key"":""d"",""event"":""keydown"",""t"":27873},{""key"":""d"",""event"":""keydown"",""t"":27956},{""key"":""d"",""event"":""keydown"",""t"":28040},{""key"":""d"",""event"":""keydown"",""t"":28123},{""key"":""d"",""event"":""keydown"",""t"":28206},{""key"":""d"",""event"":""keydown"",""t"":28290},{""key"":""d"",""event"":""keydown"",""t"":28373},{""key"":""d"",""event"":""keydown"",""t"":28457},{""key"":""d"",""event"":""keydown"",""t"":28540},{""key"":""d"",""event"":""keydown"",""t"":28623},{""key"":""d"",""event"":""keydown"",""t"":28707},{""key"":""d"",""event"":""keydown"",""t"":28790},{""key"":""d"",""event"":""keydown"",""t"":28880},{""key"":""d"",""event"":""keydown"",""t"":28956},{""key"":""d"",""event"":""keyup"",""t"":28984},{""key"":""w"",""event"":""keydown"",""t"":30064},{""key"":""w"",""event"":""keydown"",""t"":30557},{""key"":""w"",""event"":""keydown"",""t"":30641},{""key"":""w"",""event"":""keydown"",""t"":30724},{""key"":""w"",""event"":""keydown"",""t"":30814},{""key"":""w"",""event"":""keydown"",""t"":30891},{""key"":""w"",""event"":""keyup"",""t"":30936},{""key"":""a"",""event"":""keydown"",""t"":31109},{""key"":""s"",""event"":""keydown"",""t"":31463},{""key"":""a"",""event"":""keyup"",""t"":31480},{""key"":""s"",""event"":""keydown"",""t"":31963},{""key"":""s"",""event"":""keydown"",""t"":32047},{""key"":""d"",""event"":""keydown"",""t"":32073},{""key"":""s"",""event"":""keyup"",""t"":32118},{""key"":""d"",""event"":""keydown"",""t"":32574},{""key"":""d"",""event"":""keydown"",""t"":32658},{""key"":""w"",""event"":""keydown"",""t"":32713},{""key"":""w"",""event"":""keyup"",""t"":32918},{""key"":""d"",""event"":""keyup"",""t"":32930},{""key"":""s"",""event"":""keydown"",""t"":33033},{""key"":""s"",""event"":""keydown"",""t"":33534},{""key"":""s"",""event"":""keydown"",""t"":33618},{""key"":""s"",""event"":""keydown"",""t"":33702},{""key"":""s"",""event"":""keydown"",""t"":33785},{""key"":""s"",""event"":""keydown"",""t"":33868},{""key"":""s"",""event"":""keydown"",""t"":33951},{""key"":""s"",""event"":""keydown"",""t"":34035},{""key"":""s"",""event"":""keydown"",""t"":34119},{""key"":""s"",""event"":""keydown"",""t"":34202},{""key"":""s"",""event"":""keydown"",""t"":34285},{""key"":""s"",""event"":""keydown"",""t"":34368},{""key"":""s"",""event"":""keydown"",""t"":34452},{""key"":""s"",""event"":""keydown"",""t"":34535},{""key"":""s"",""event"":""keydown"",""t"":34618},{""key"":""s"",""event"":""keydown"",""t"":34701},{""key"":""s"",""event"":""keydown"",""t"":34785},{""key"":""d"",""event"":""keydown"",""t"":34847},{""key"":""s"",""event"":""keyup"",""t"":34885},{""key"":""d"",""event"":""keydown"",""t"":35347},{""key"":""d"",""event"":""keydown"",""t"":35418},{""key"":""d"",""event"":""keydown"",""t"":35502},{""key"":""d"",""event"":""keydown"",""t"":35585},{""key"":""d"",""event"":""keydown"",""t"":35668},{""key"":""d"",""event"":""keydown"",""t"":35751},{""key"":""d"",""event"":""keydown"",""t"":35835},{""key"":""d"",""event"":""keydown"",""t"":35930},{""key"":""d"",""event"":""keydown"",""t"":36002},{""key"":""d"",""event"":""keydown"",""t"":36085},{""key"":""d"",""event"":""keydown"",""t"":36168},{""key"":""d"",""event"":""keydown"",""t"":36251},{""key"":""d"",""event"":""keydown"",""t"":36335},{""key"":""d"",""event"":""keydown"",""t"":36418},{""key"":""d"",""event"":""keydown"",""t"":36502},{""key"":""d"",""event"":""keydown"",""t"":36585},{""key"":""d"",""event"":""keydown"",""t"":36668},{""key"":""d"",""event"":""keydown"",""t"":36750},{""key"":""d"",""event"":""keydown"",""t"":36835},{""key"":""d"",""event"":""keydown"",""t"":36919},{""key"":""d"",""event"":""keydown"",""t"":37013},{""key"":""d"",""event"":""keydown"",""t"":37085},{""key"":""d"",""event"":""keydown"",""t"":37168},{""key"":""d"",""event"":""keydown"",""t"":37252},{""key"":""d"",""event"":""keydown"",""t"":37335},{""key"":""d"",""event"":""keydown"",""t"":37419},{""key"":""d"",""event"":""keydown"",""t"":37502},{""key"":""d"",""event"":""keydown"",""t"":37585},{""key"":""d"",""event"":""keydown"",""t"":37668},{""key"":""d"",""event"":""keydown"",""t"":37750},{""key"":""d"",""event"":""keydown"",""t"":37835},{""key"":""d"",""event"":""keydown"",""t"":37918},{""key"":""d"",""event"":""keydown"",""t"":38002},{""key"":""d"",""event"":""keydown"",""t"":38086},{""key"":""d"",""event"":""keydown"",""t"":38169},{""key"":""d"",""event"":""keydown"",""t"":38253},{""key"":""d"",""event"":""keydown"",""t"":38347},{""key"":""d"",""event"":""keydown"",""t"":38430},{""key"":""d"",""event"":""keydown"",""t"":38502},{""key"":""d"",""event"":""keydown"",""t"":38597},{""key"":""d"",""event"":""keydown"",""t"":38680},{""key"":""d"",""event"":""keydown"",""t"":38763},{""key"":""d"",""event"":""keydown"",""t"":38836},{""key"":""d"",""event"":""keydown"",""t"":38919},{""key"":""d"",""event"":""keydown"",""t"":39013},{""key"":""d"",""event"":""keydown"",""t"":39085},{""key"":""d"",""event"":""keydown"",""t"":39169},{""key"":""d"",""event"":""keydown"",""t"":39252},{""key"":""d"",""event"":""keydown"",""t"":39335},{""key"":""d"",""event"":""keydown"",""t"":39420},{""key"":""d"",""event"":""keydown"",""t"":39502},{""key"":""d"",""event"":""keydown"",""t"":39586},{""key"":""d"",""event"":""keydown"",""t"":39667},{""key"":""d"",""event"":""keydown"",""t"":39750},{""key"":""d"",""event"":""keydown"",""t"":39835},{""key"":""d"",""event"":""keydown"",""t"":39920},{""key"":""d"",""event"":""keydown"",""t"":40001},{""key"":""d"",""event"":""keydown"",""t"":40084},{""key"":""d"",""event"":""keydown"",""t"":40170},{""key"":""d"",""event"":""keydown"",""t"":40252},{""key"":""w"",""event"":""keydown"",""t"":40290},{""key"":""d"",""event"":""keyup"",""t"":40320},{""key"":""w"",""event"":""keydown"",""t"":40791},{""key"":""w"",""event"":""keydown"",""t"":40873},{""key"":""w"",""event"":""keydown"",""t"":40957},{""key"":""w"",""event"":""keydown"",""t"":41040},{""key"":""w"",""event"":""keydown"",""t"":41124},{""key"":""w"",""event"":""keydown"",""t"":41207},{""key"":""w"",""event"":""keydown"",""t"":41291},{""key"":""w"",""event"":""keydown"",""t"":41374},{""key"":""w"",""event"":""keydown"",""t"":41457},{""key"":""w"",""event"":""keydown"",""t"":41541},{""key"":""w"",""event"":""keydown"",""t"":41624},{""key"":""w"",""event"":""keydown"",""t"":41707},{""key"":""w"",""event"":""keydown"",""t"":41790},{""key"":""w"",""event"":""keydown"",""t"":41874},{""key"":""w"",""event"":""keydown"",""t"":41957},{""key"":""w"",""event"":""keydown"",""t"":42040},{""key"":""w"",""event"":""keydown"",""t"":42124},{""key"":""w"",""event"":""keydown"",""t"":42207},{""key"":""d"",""event"":""keydown"",""t"":42268},{""key"":""w"",""event"":""keyup"",""t"":42522},{""key"":""s"",""event"":""keydown"",""t"":42701},{""key"":""d"",""event"":""keyup"",""t"":42741},{""key"":""s"",""event"":""keyup"",""t"":43046},{""key"":""d"",""event"":""keydown"",""t"":43063},{""key"":""d"",""event"":""keyup"",""t"":43146},{""key"":""w"",""event"":""keydown"",""t"":43163},{""key"":""d"",""event"":""keydown"",""t"":43322},{""key"":""w"",""event"":""keyup"",""t"":43351},{""key"":""w"",""event"":""keydown"",""t"":43785},{""key"":""d"",""event"":""keyup"",""t"":43801},{""key"":""d"",""event"":""keydown"",""t"":43943},{""key"":""w"",""event"":""keyup"",""t"":43967},{""key"":""s"",""event"":""keydown"",""t"":44350},{""key"":""d"",""event"":""keyup"",""t"":44568},{""key"":""d"",""event"":""keydown"",""t"":44613},{""key"":""s"",""event"":""keyup"",""t"":44646},{""key"":""d"",""event"":""keyup"",""t"":44913},{""key"":""d"",""event"":""keydown"",""t"":44963},{""key"":""s"",""event"":""keydown"",""t"":45302},{""key"":""d"",""event"":""keyup"",""t"":45439},{""key"":""d"",""event"":""keydown"",""t"":45552},{""key"":""d"",""event"":""keyup"",""t"":45630},{""key"":""d"",""event"":""keydown"",""t"":46059},{""key"":""s"",""event"":""keyup"",""t"":46096},{""key"":""w"",""event"":""keydown"",""t"":46552},{""key"":""d"",""event"":""keyup"",""t"":46580},{""key"":""w"",""event"":""keyup"",""t"":46730},{""key"":""d"",""event"":""keydown"",""t"":46747},{""key"":""w"",""event"":""keydown"",""t"":47218},{""key"":""d"",""event"":""keyup"",""t"":47277},{""key"":""d"",""event"":""keydown"",""t"":47677},{""key"":""w"",""event"":""keyup"",""t"":47724},{""key"":""s"",""event"":""keydown"",""t"":48130},{""key"":""s"",""event"":""keyup"",""t"":48177},{""key"":""s"",""event"":""keydown"",""t"":48702},{""key"":""d"",""event"":""keyup"",""t"":48737},{""key"":""a"",""event"":""keydown"",""t"":48952},{""key"":""s"",""event"":""keyup"",""t"":48963},{""key"":""w"",""event"":""keydown"",""t"":49263},{""key"":""a"",""event"":""keyup"",""t"":49285},{""key"":""w"",""event"":""keyup"",""t"":49463},{""key"":""a"",""event"":""keydown"",""t"":49771},{""key"":""s"",""event"":""keydown"",""t"":49863},{""key"":""a"",""event"":""keyup"",""t"":49896},{""key"":""a"",""event"":""keydown"",""t"":50280},{""key"":""a"",""event"":""keyup"",""t"":50363},{""key"":""a"",""event"":""keydown"",""t"":50434},{""key"":""s"",""event"":""keyup"",""t"":50486},{""key"":""w"",""event"":""keydown"",""t"":50847},{""key"":""w"",""event"":""keyup"",""t"":51001},{""key"":""s"",""event"":""keydown"",""t"":51397},{""key"":""a"",""event"":""keyup"",""t"":51466},{""key"":""a"",""event"":""keydown"",""t"":51870},{""key"":""s"",""event"":""keyup"",""t"":51952},{""key"":""s"",""event"":""keydown"",""t"":52217},{""key"":""a"",""event"":""keyup"",""t"":52368},{""key"":""s"",""event"":""keydown"",""t"":52718},{""key"":""s"",""event"":""keydown"",""t"":52801},{""key"":""s"",""event"":""keydown"",""t"":52885},{""key"":""s"",""event"":""keydown"",""t"":52968},{""key"":""s"",""event"":""keydown"",""t"":53052},{""key"":""s"",""event"":""keydown"",""t"":53135},{""key"":""s"",""event"":""keydown"",""t"":53218},{""key"":""a"",""event"":""keydown"",""t"":53259},{""key"":""s"",""event"":""keyup"",""t"":53280},{""key"":""s"",""event"":""keydown"",""t"":53397},{""key"":""a"",""event"":""keyup"",""t"":53430},{""key"":""s"",""event"":""keydown"",""t"":53885},{""key"":""s"",""event"":""keydown"",""t"":53968},{""key"":""s"",""event"":""keydown"",""t"":54052},{""key"":""s"",""event"":""keydown"",""t"":54135},{""key"":""s"",""event"":""keydown"",""t"":54218},{""key"":""s"",""event"":""keydown"",""t"":54302},{""key"":""s"",""event"":""keydown"",""t"":54385},{""key"":""s"",""event"":""keydown"",""t"":54468},{""key"":""s"",""event"":""keydown"",""t"":54552},{""key"":""s"",""event"":""keydown"",""t"":54635},{""key"":""s"",""event"":""keydown"",""t"":54718},{""key"":""s"",""event"":""keydown"",""t"":54801},{""key"":""a"",""event"":""keydown"",""t"":54817},{""key"":""s"",""event"":""keyup"",""t"":54980},{""key"":""a"",""event"":""keydown"",""t"":55318},{""key"":""a"",""event"":""keydown"",""t"":55401},{""key"":""a"",""event"":""keydown"",""t"":55485},{""key"":""a"",""event"":""keydown"",""t"":55581},{""key"":""a"",""event"":""keydown"",""t"":55651},{""key"":""a"",""event"":""keydown"",""t"":55736},{""key"":""a"",""event"":""keydown"",""t"":55819},{""key"":""a"",""event"":""keydown"",""t"":55913},{""key"":""a"",""event"":""keydown"",""t"":55986},{""key"":""a"",""event"":""keydown"",""t"":56080},{""key"":""a"",""event"":""keydown"",""t"":56153},{""key"":""a"",""event"":""keydown"",""t"":56236},{""key"":""a"",""event"":""keydown"",""t"":56319},{""key"":""a"",""event"":""keyup"",""t"":56330},{""key"":""a"",""event"":""keydown"",""t"":59569},{""key"":""a"",""event"":""keydown"",""t"":60067},{""key"":""a"",""event"":""keydown"",""t"":60152},{""key"":""a"",""event"":""keydown"",""t"":60235},{""key"":""a"",""event"":""keydown"",""t"":60318},{""key"":""a"",""event"":""keydown"",""t"":60402},{""key"":""a"",""event"":""keydown"",""t"":60485},{""key"":""a"",""event"":""keydown"",""t"":60580},{""key"":""a"",""event"":""keydown"",""t"":60653},{""key"":""s"",""event"":""keydown"",""t"":60707},{""key"":""s"",""event"":""keyup"",""t"":60796},{""key"":""a"",""event"":""keyup"",""t"":61396},{""key"":""Shift"",""event"":""keydown"",""t"":72313},{""key"":""Shift"",""event"":""keyup"",""t"":72396},{""key"":""a"",""event"":""keydown"",""t"":72552},{""key"":""a"",""event"":""keydown"",""t"":73052},{""key"":""a"",""event"":""keydown"",""t"":73136},{""key"":""a"",""event"":""keydown"",""t"":73218},{""key"":""a"",""event"":""keydown"",""t"":73302},{""key"":""a"",""event"":""keydown"",""t"":73396},{""key"":""a"",""event"":""keydown"",""t"":73471},{""key"":""a"",""event"":""keydown"",""t"":73555},{""key"":""a"",""event"":""keydown"",""t"":73639},{""key"":""a"",""event"":""keydown"",""t"":73722},{""key"":""a"",""event"":""keydown"",""t"":73813},{""key"":""w"",""event"":""keydown"",""t"":73851},{""key"":""w"",""event"":""keyup"",""t"":74199},{""key"":""w"",""event"":""keydown"",""t"":74930},{""key"":""a"",""event"":""keyup"",""t"":74974},{""key"":""w"",""event"":""keydown"",""t"":75418},{""key"":""w"",""event"":""keydown"",""t"":75501},{""key"":""w"",""event"":""keydown"",""t"":75596},{""key"":""w"",""event"":""keydown"",""t"":75680},{""key"":""w"",""event"":""keydown"",""t"":75763},{""key"":""w"",""event"":""keydown"",""t"":75835},{""key"":""w"",""event"":""keydown"",""t"":75919},{""key"":""w"",""event"":""keydown"",""t"":76013},{""key"":""w"",""event"":""keydown"",""t"":76085},{""key"":""w"",""event"":""keydown"",""t"":76168},{""key"":""w"",""event"":""keydown"",""t"":76251},{""key"":""w"",""event"":""keydown"",""t"":76335},{""key"":""w"",""event"":""keydown"",""t"":76418},{""key"":""w"",""event"":""keydown"",""t"":76501},{""key"":""w"",""event"":""keydown"",""t"":76596},{""key"":""w"",""event"":""keydown"",""t"":76668},{""key"":""w"",""event"":""keyup"",""t"":76746},{""key"":""s"",""event"":""keydown"",""t"":76863},{""key"":""a"",""event"":""keydown"",""t"":77276},{""key"":""s"",""event"":""keyup"",""t"":77463},{""key"":""a"",""event"":""keydown"",""t"":77780},{""key"":""w"",""event"":""keydown"",""t"":77796},{""key"":""a"",""event"":""keyup"",""t"":77966},{""key"":""w"",""event"":""keydown"",""t"":78292},{""key"":""w"",""event"":""keydown"",""t"":78380},{""key"":""a"",""event"":""keydown"",""t"":78444},{""key"":""w"",""event"":""keyup"",""t"":78546},{""key"":""a"",""event"":""keydown"",""t"":78946},{""key"":""a"",""event"":""keydown"",""t"":79030},{""key"":""a"",""event"":""keyup"",""t"":79082},{""key"":""r"",""event"":""keydown"",""t"":80135},{""key"":""r"",""event"":""keyup"",""t"":80296},{""key"":""d"",""event"":""keydown"",""t"":81200},{""key"":""s"",""event"":""keydown"",""t"":81522},{""key"":""d"",""event"":""keyup"",""t"":81767},{""key"":""s"",""event"":""keydown"",""t"":82023},{""key"":""s"",""event"":""keydown"",""t"":82106},{""key"":""s"",""event"":""keydown"",""t"":82189},{""key"":""s"",""event"":""keydown"",""t"":82274},{""key"":""s"",""event"":""keydown"",""t"":82363},{""key"":""s"",""event"":""keydown"",""t"":82440},{""key"":""s"",""event"":""keydown"",""t"":82523},{""key"":""s"",""event"":""keydown"",""t"":82607},{""key"":""s"",""event"":""keydown"",""t"":82691},{""key"":""d"",""event"":""keydown"",""t"":82757},{""key"":""s"",""event"":""keyup"",""t"":82825},{""key"":""s"",""event"":""keydown"",""t"":83080},{""key"":""d"",""event"":""keyup"",""t"":83146},{""key"":""s"",""event"":""keydown"",""t"":83574},{""key"":""s"",""event"":""keydown"",""t"":83657},{""key"":""s"",""event"":""keydown"",""t"":83741},{""key"":""s"",""event"":""keydown"",""t"":83830},{""key"":""s"",""event"":""keydown"",""t"":83907},{""key"":""s"",""event"":""keydown"",""t"":83997},{""key"":""s"",""event"":""keydown"",""t"":84073},{""key"":""d"",""event"":""keydown"",""t"":84151},{""key"":""d"",""event"":""keyup"",""t"":84252},{""key"":""d"",""event"":""keydown"",""t"":84638},{""key"":""s"",""event"":""keyup"",""t"":84689},{""key"":""d"",""event"":""keydown"",""t"":85138},{""key"":""d"",""event"":""keydown"",""t"":85222},{""key"":""d"",""event"":""keydown"",""t"":85306},{""key"":""d"",""event"":""keydown"",""t"":85389},{""key"":""d"",""event"":""keydown"",""t"":85472},{""key"":""d"",""event"":""keydown"",""t"":85557},{""key"":""d"",""event"":""keydown"",""t"":85640},{""key"":""d"",""event"":""keydown"",""t"":85724},{""key"":""d"",""event"":""keydown"",""t"":85807},{""key"":""d"",""event"":""keydown"",""t"":85890},{""key"":""d"",""event"":""keydown"",""t"":85973},{""key"":""d"",""event"":""keydown"",""t"":86063},{""key"":""d"",""event"":""keydown"",""t"":86140},{""key"":""d"",""event"":""keydown"",""t"":86223},{""key"":""d"",""event"":""keydown"",""t"":86307},{""key"":""d"",""event"":""keydown"",""t"":86390},{""key"":""d"",""event"":""keydown"",""t"":86479},{""key"":""d"",""event"":""keydown"",""t"":86557},{""key"":""d"",""event"":""keydown"",""t"":86641},{""key"":""d"",""event"":""keydown"",""t"":86730},{""key"":""Shift"",""event"":""keydown"",""t"":86758},{""key"":""D"",""event"":""keydown"",""t"":86813},{""key"":""D"",""event"":""keydown"",""t"":86896},{""key"":""D"",""event"":""keydown"",""t"":86977},{""key"":""D"",""event"":""keydown"",""t"":87063},{""key"":""Shift"",""event"":""keyup"",""t"":87141},{""key"":""d"",""event"":""keydown"",""t"":87146},{""key"":""d"",""event"":""keydown"",""t"":87229},{""key"":""d"",""event"":""keyup"",""t"":87246},{""key"":""Shift"",""event"":""keydown"",""t"":87490},{""key"":""Shift"",""event"":""keyup"",""t"":87779},{""key"":""Shift"",""event"":""keydown"",""t"":87877},{""key"":""Shift"",""event"":""keyup"",""t"":88100},{""key"":""d"",""event"":""keydown"",""t"":88329},{""key"":""d"",""event"":""keydown"",""t"":88830},{""key"":""d"",""event"":""keydown"",""t"":88916},{""key"":""d"",""event"":""keydown"",""t"":89000},{""key"":""d"",""event"":""keydown"",""t"":89084},{""key"":""d"",""event"":""keydown"",""t"":89167},{""key"":""d"",""event"":""keydown"",""t"":89250},{""key"":""d"",""event"":""keydown"",""t"":89334},{""key"":""d"",""event"":""keydown"",""t"":89418},{""key"":""d"",""event"":""keydown"",""t"":89501},{""key"":""d"",""event"":""keyup"",""t"":89560},{""key"":""2"",""event"":""keydown"",""t"":90001},{""key"":""2"",""event"":""keyup"",""t"":90366},{""key"":""2"",""event"":""keydown"",""t"":90663},{""key"":""2"",""event"":""keyup"",""t"":90917},{""key"":""1"",""event"":""keydown"",""t"":91008},{""key"":""1"",""event"":""keyup"",""t"":91274},{""key"":""2"",""event"":""keydown"",""t"":91883},{""key"":""2"",""event"":""keyup"",""t"":92077},{""key"":""3"",""event"":""keydown"",""t"":92413},{""key"":""3"",""event"":""keyup"",""t"":92700},{""key"":""1"",""event"":""keydown"",""t"":94743},{""key"":""1"",""event"":""keyup"",""t"":94886},{""key"":""d"",""event"":""keydown"",""t"":95074},{""key"":""d"",""event"":""keydown"",""t"":95580},{""key"":""d"",""event"":""keydown"",""t"":95663},{""key"":""d"",""event"":""keydown"",""t"":95741},{""key"":""d"",""event"":""keydown"",""t"":95826},{""key"":""d"",""event"":""keydown"",""t"":95913},{""key"":""d"",""event"":""keydown"",""t"":95996},{""key"":""d"",""event"":""keydown"",""t"":96081},{""key"":""d"",""event"":""keydown"",""t"":96163},{""key"":""d"",""event"":""keydown"",""t"":96246},{""key"":""d"",""event"":""keydown"",""t"":96330},{""key"":""d"",""event"":""keydown"",""t"":96413},{""key"":""d"",""event"":""keydown"",""t"":96496},{""key"":""d"",""event"":""keydown"",""t"":96583},{""key"":""d"",""event"":""keydown"",""t"":96667},{""key"":""d"",""event"":""keydown"",""t"":96749},{""key"":""d"",""event"":""keydown"",""t"":96833},{""key"":""d"",""event"":""keydown"",""t"":96917},{""key"":""d"",""event"":""keydown"",""t"":97013},{""key"":""d"",""event"":""keydown"",""t"":97096},{""key"":""d"",""event"":""keydown"",""t"":97168},{""key"":""w"",""event"":""keydown"",""t"":97217},{""key"":""d"",""event"":""keyup"",""t"":97358},{""key"":""w"",""event"":""keydown"",""t"":97718},{""key"":""w"",""event"":""keydown"",""t"":97801},{""key"":""w"",""event"":""keydown"",""t"":97885},{""key"":""w"",""event"":""keydown"",""t"":97968},{""key"":""w"",""event"":""keydown"",""t"":98051},{""key"":""w"",""event"":""keydown"",""t"":98134},{""key"":""w"",""event"":""keydown"",""t"":98218},{""key"":""w"",""event"":""keydown"",""t"":98302},{""key"":""w"",""event"":""keydown"",""t"":98396},{""key"":""w"",""event"":""keydown"",""t"":98468},{""key"":""w"",""event"":""keydown"",""t"":98551},{""key"":""w"",""event"":""keydown"",""t"":98634},{""key"":""w"",""event"":""keydown"",""t"":98718},{""key"":""w"",""event"":""keydown"",""t"":98801},{""key"":""w"",""event"":""keydown"",""t"":98884},{""key"":""w"",""event"":""keydown"",""t"":98979},{""key"":""w"",""event"":""keydown"",""t"":99052},{""key"":""w"",""event"":""keydown"",""t"":99134},{""key"":""w"",""event"":""keydown"",""t"":99218},{""key"":""w"",""event"":""keydown"",""t"":99301},{""key"":""w"",""event"":""keyup"",""t"":99351},{""key"":""s"",""event"":""keydown"",""t"":99529},{""key"":""d"",""event"":""keydown"",""t"":99913},{""key"":""d"",""event"":""keydown"",""t"":100406},{""key"":""s"",""event"":""keyup"",""t"":100473},{""key"":""d"",""event"":""keydown"",""t"":100489},{""key"":""d"",""event"":""keydown"",""t"":100579},{""key"":""d"",""event"":""keydown"",""t"":100657},{""key"":""w"",""event"":""keydown"",""t"":100716},{""key"":""d"",""event"":""keyup"",""t"":100729},{""key"":""d"",""event"":""keydown"",""t"":100929},{""key"":""w"",""event"":""keyup"",""t"":100946},{""key"":""d"",""event"":""keydown"",""t"":101433},{""key"":""d"",""event"":""keydown"",""t"":101517},{""key"":""d"",""event"":""keydown"",""t"":101613},{""key"":""d"",""event"":""keydown"",""t"":101684},{""key"":""d"",""event"":""keydown"",""t"":101768},{""key"":""d"",""event"":""keydown"",""t"":101851},{""key"":""w"",""event"":""keydown"",""t"":101873},{""key"":""d"",""event"":""keyup"",""t"":101937},{""key"":""w"",""event"":""keydown"",""t"":102374},{""key"":""d"",""event"":""keydown"",""t"":102421},{""key"":""w"",""event"":""keyup"",""t"":102450},{""key"":""d"",""event"":""keydown"",""t"":102921},{""key"":""s"",""event"":""keydown"",""t"":102940},{""key"":""d"",""event"":""keyup"",""t"":103046},{""key"":""d"",""event"":""keydown"",""t"":103309},{""key"":""s"",""event"":""keyup"",""t"":103337},{""key"":""w"",""event"":""keydown"",""t"":103500},{""key"":""d"",""event"":""keyup"",""t"":103540},{""key"":""a"",""event"":""keydown"",""t"":103737},{""key"":""w"",""event"":""keyup"",""t"":103751},{""key"":""a"",""event"":""keydown"",""t"":104238},{""key"":""s"",""event"":""keydown"",""t"":104279},{""key"":""a"",""event"":""keyup"",""t"":104393},{""key"":""a"",""event"":""keydown"",""t"":104663},{""key"":""s"",""event"":""keyup"",""t"":104679},{""key"":""w"",""event"":""keydown"",""t"":104909},{""key"":""a"",""event"":""keyup"",""t"":105008},{""key"":""d"",""event"":""keydown"",""t"":105384},{""key"":""d"",""event"":""keyup"",""t"":105538},{""key"":""a"",""event"":""keydown"",""t"":105913},{""key"":""w"",""event"":""keyup"",""t"":105913},{""key"":""a"",""event"":""keydown"",""t"":106402},{""key"":""a"",""event"":""keydown"",""t"":106486},{""key"":""s"",""event"":""keydown"",""t"":106501},{""key"":""a"",""event"":""keyup"",""t"":106553},{""key"":""s"",""event"":""keyup"",""t"":106629},{""key"":""a"",""event"":""keydown"",""t"":106646},{""key"":""w"",""event"":""keydown"",""t"":107053},{""key"":""a"",""event"":""keyup"",""t"":107096},{""key"":""w"",""event"":""keydown"",""t"":107563},{""key"":""w"",""event"":""keydown"",""t"":107638},{""key"":""w"",""event"":""keydown"",""t"":107729},{""key"":""w"",""event"":""keydown"",""t"":107813},{""key"":""w"",""event"":""keydown"",""t"":107888},{""key"":""w"",""event"":""keydown"",""t"":107971},{""key"":""w"",""event"":""keydown"",""t"":108055},{""key"":""w"",""event"":""keydown"",""t"":108139},{""key"":""w"",""event"":""keydown"",""t"":108223},{""key"":""w"",""event"":""keydown"",""t"":108307},{""key"":""w"",""event"":""keydown"",""t"":108390},{""key"":""w"",""event"":""keydown"",""t"":108473},{""key"":""w"",""event"":""keyup"",""t"":108529},{""key"":""a"",""event"":""keydown"",""t"":108563},{""key"":""s"",""event"":""keydown"",""t"":108615},{""key"":""a"",""event"":""keyup"",""t"":108636},{""key"":""s"",""event"":""keyup"",""t"":108737},{""key"":""w"",""event"":""keydown"",""t"":108863},{""key"":""w"",""event"":""keydown"",""t"":109351},{""key"":""w"",""event"":""keydown"",""t"":109434},{""key"":""w"",""event"":""keyup"",""t"":109462},{""key"":""s"",""event"":""keydown"",""t"":109529},{""key"":""s"",""event"":""keydown"",""t"":110029},{""key"":""a"",""event"":""keydown"",""t"":110104},{""key"":""a"",""event"":""keyup"",""t"":110272},{""key"":""a"",""event"":""keydown"",""t"":110718},{""key"":""s"",""event"":""keyup"",""t"":110771},{""key"":""w"",""event"":""keydown"",""t"":111103},{""key"":""a"",""event"":""keyup"",""t"":111138},{""key"":""w"",""event"":""keyup"",""t"":111234},{""key"":""a"",""event"":""keydown"",""t"":111327},{""key"":""w"",""event"":""keydown"",""t"":111696},{""key"":""a"",""event"":""keyup"",""t"":111733},{""key"":""w"",""event"":""keyup"",""t"":111817},{""key"":""a"",""event"":""keydown"",""t"":111913},{""key"":""a"",""event"":""keydown"",""t"":112418},{""key"":""w"",""event"":""keydown"",""t"":112434},{""key"":""a"",""event"":""keyup"",""t"":112462},{""key"":""w"",""event"":""keydown"",""t"":112946},{""key"":""w"",""event"":""keydown"",""t"":113018},{""key"":""w"",""event"":""keydown"",""t"":113113},{""key"":""w"",""event"":""keydown"",""t"":113185},{""key"":""w"",""event"":""keydown"",""t"":113268},{""key"":""w"",""event"":""keydown"",""t"":113351},{""key"":""w"",""event"":""keydown"",""t"":113435},{""key"":""w"",""event"":""keydown"",""t"":113518},{""key"":""w"",""event"":""keydown"",""t"":113601},{""key"":""w"",""event"":""keydown"",""t"":113684},{""key"":""w"",""event"":""keydown"",""t"":113768},{""key"":""w"",""event"":""keydown"",""t"":113850},{""key"":""w"",""event"":""keydown"",""t"":113934},{""key"":""w"",""event"":""keydown"",""t"":114017},{""key"":""w"",""event"":""keydown"",""t"":114101},{""key"":""a"",""event"":""keydown"",""t"":114172},{""key"":""w"",""event"":""keyup"",""t"":114196},{""key"":""a"",""event"":""keydown"",""t"":114673},{""key"":""a"",""event"":""keydown"",""t"":114762},{""key"":""a"",""event"":""keydown"",""t"":114839},{""key"":""a"",""event"":""keydown"",""t"":114926},{""key"":""a"",""event"":""keydown"",""t"":115015},{""key"":""a"",""event"":""keydown"",""t"":115090},{""key"":""a"",""event"":""keydown"",""t"":115179},{""key"":""a"",""event"":""keydown"",""t"":115262},{""key"":""s"",""event"":""keydown"",""t"":115313},{""key"":""a"",""event"":""keyup"",""t"":115367},{""key"":""s"",""event"":""keydown"",""t"":115805},{""key"":""s"",""event"":""keydown"",""t"":115889},{""key"":""s"",""event"":""keydown"",""t"":115971},{""key"":""a"",""event"":""keydown"",""t"":116063},{""key"":""s"",""event"":""keyup"",""t"":116146},{""key"":""a"",""event"":""keydown"",""t"":116551},{""key"":""a"",""event"":""keydown"",""t"":116646},{""key"":""a"",""event"":""keydown"",""t"":116717},{""key"":""a"",""event"":""keydown"",""t"":116813},{""key"":""a"",""event"":""keydown"",""t"":116883},{""key"":""a"",""event"":""keydown"",""t"":116968},{""key"":""a"",""event"":""keydown"",""t"":117051},{""key"":""a"",""event"":""keydown"",""t"":117134},{""key"":""a"",""event"":""keydown"",""t"":117218},{""key"":""a"",""event"":""keydown"",""t"":117299},{""key"":""a"",""event"":""keydown"",""t"":117383},{""key"":""a"",""event"":""keydown"",""t"":117468},{""key"":""a"",""event"":""keydown"",""t"":117551},{""key"":""a"",""event"":""keydown"",""t"":117635},{""key"":""a"",""event"":""keydown"",""t"":117718},{""key"":""a"",""event"":""keydown"",""t"":117801},{""key"":""a"",""event"":""keydown"",""t"":117884},{""key"":""a"",""event"":""keyup"",""t"":117952},{""key"":""a"",""event"":""keydown"",""t"":118046},{""key"":""a"",""event"":""keydown"",""t"":118541},{""key"":""a"",""event"":""keydown"",""t"":118626},{""key"":""a"",""event"":""keydown"",""t"":118709},{""key"":""a"",""event"":""keydown"",""t"":118793},{""key"":""a"",""event"":""keydown"",""t"":118879},{""key"":""a"",""event"":""keydown"",""t"":118962},{""key"":""a"",""event"":""keydown"",""t"":119046},{""key"":""a"",""event"":""keydown"",""t"":119129},{""key"":""a"",""event"":""keydown"",""t"":119212},{""key"":""a"",""event"":""keydown"",""t"":119300},{""key"":""a"",""event"":""keydown"",""t"":119396},{""key"":""a"",""event"":""keydown"",""t"":119468},{""key"":""a"",""event"":""keydown"",""t"":119550},{""key"":""a"",""event"":""keydown"",""t"":119634},{""key"":""a"",""event"":""keydown"",""t"":119718},{""key"":""a"",""event"":""keydown"",""t"":119801},{""key"":""a"",""event"":""keydown"",""t"":119885},{""key"":""a"",""event"":""keydown"",""t"":119968},{""key"":""a"",""event"":""keydown"",""t"":120051},{""key"":""a"",""event"":""keydown"",""t"":120135},{""key"":""a"",""event"":""keydown"",""t"":120219},{""key"":""a"",""event"":""keydown"",""t"":120302},{""key"":""a"",""event"":""keydown"",""t"":120385},{""key"":""a"",""event"":""keydown"",""t"":120469},{""key"":""s"",""event"":""keydown"",""t"":120535},{""key"":""a"",""event"":""keyup"",""t"":120602},{""key"":""a"",""event"":""keydown"",""t"":120638},{""key"":""a"",""event"":""keyup"",""t"":120753},{""key"":""s"",""event"":""keyup"",""t"":120941},{""key"":""r"",""event"":""keydown"",""t"":121605},{""key"":""r"",""event"":""keyup"",""t"":121796},{""key"":""r"",""event"":""keydown"",""t"":122613},{""key"":""r"",""event"":""keyup"",""t"":122846},{""key"":""r"",""event"":""keydown"",""t"":124274},{""key"":""r"",""event"":""keyup"",""t"":124496},{""key"":""Escape"",""event"":""keydown"",""t"":133440},{""key"":""Escape"",""event"":""keyup"",""t"":133645},{""key"":""r"",""event"":""keydown"",""t"":139919},{""key"":""r"",""event"":""keyup"",""t"":140229},{""key"":""c"",""event"":""keydown"",""t"":147570},{""key"":""c"",""event"":""keyup"",""t"":147679},{""key"":""r"",""event"":""keydown"",""t"":147817},{""key"":""r"",""event"":""keyup"",""t"":147882},{""key"":""a"",""event"":""keydown"",""t"":148041},{""key"":""a"",""event"":""keyup"",""t"":148119},{""key"":""s"",""event"":""keydown"",""t"":148185},{""key"":""h"",""event"":""keydown"",""t"":148273},{""key"":""s"",""event"":""keyup"",""t"":148295},{""key"":""e"",""event"":""keydown"",""t"":148392},{""key"":""h"",""event"":""keyup"",""t"":148395},{""key"":""e"",""event"":""keyup"",""t"":148466},{""key"":""d"",""event"":""keydown"",""t"":148527},{""key"":""d"",""event"":""keyup"",""t"":148645}]","[]"
"471408","","{""creativity-rating"":2,""creativity-free-response"":""The game had very simple instructions and controls, and was on a very dark background, which did not seem too creative. It felt like it was inspired by Pac-Man, which is a very popular game, but for it to be inspired by it feels uninspiring."",""originality-rating"":1,""originality-free-response"":""It had the same controls and similar gameplay mechanics to Pac-Man, where there are enemies around the map trying to catch you while you try to retrieve something. The very dark aesthetic was interesting, but it was not done originally or creatively. "",""effectiveness-rating"":3,""effectiveness-free-response"":""I enjoyed the game, even though it was so simple. The functionality was very simple, and everything worked as it should with little to no issues. I found how simple it was to be very enjoyable, and nothing came off as super frustrating aside from the fact that I could not beat the game. "",""authenticity-rating"":2,""attention-check"":3,""intentionality-rating"":2,""authenticity-intentionality-free-response"":""The game did not feel super authentic, as it felt like a different version of Pac-Man. It was ripping off the idea. The intentionality and effort were adequate, as some effort went into the game, and there was some clear differentiation with the addition of the relic, but not enough to make it super inspiring. ""}","evaluation-chat-1-echo","survey","4","722651","0.0-4.0","6501b789e3ddbc0a0b79b925","6987c292780adf01bb926159","69a4fcc2888d846e7607a041","","","","","","",""
"22957","","{""concept-creativity-rating"":3,""concept-implementation-rating"":2,""question1"":null}","concept-chat-1-echo","survey","5","745616","0.0-5.0","6501b789e3ddbc0a0b79b925","6987c292780adf01bb926159","69a4fcc2888d846e7607a041","","","","","","",""
"1983","You have completed your evaluation of the first video game.<br><br>Press any key to proceed to the second game."," ","pre-game-two-message","html-keyboard-response","6","747599","0.0-6.0","6501b789e3ddbc0a0b79b925","6987c292780adf01bb926159","69a4fcc2888d846e7607a041","","","","","","",""
"282524","","","game-chat-3-orbit","plugin-game-iframe","7","1030134","0.0-7.0","6501b789e3ddbc0a0b79b925","6987c292780adf01bb926159","69a4fcc2888d846e7607a041","game-complete","complete","{""stage"":""complete"",""detail"":{""state"":""complete"",""movementIndex"":2,""launchesUsed"":63,""phraseProgress"":8}}","{""result"":""win"",""accuracy"":34,""totalLaunches"":131,""onBeatLaunches"":44,""longestOrbit"":96.8325}","null","[{""key"":"" "",""event"":""keyup"",""t"":120},{""key"":""Enter"",""event"":""keydown"",""t"":6338},{""key"":""Enter"",""event"":""keyup"",""t"":6447},{""key"":""n"",""event"":""keydown"",""t"":73525},{""key"":""n"",""event"":""keyup"",""t"":73641},{""key"":""n"",""event"":""keydown"",""t"":176459},{""key"":""n"",""event"":""keyup"",""t"":176595},{""key"":""n"",""event"":""keydown"",""t"":277366},{""key"":""n"",""event"":""keyup"",""t"":277475},{""key"":""Enter"",""event"":""keydown"",""t"":282505}]","[]"
"854992","","{""creativity-rating"":5,""creativity-free-response"":""The game was very creative as it was an original idea I had never seen before. It was a good mix of a strategy/timing game with a strong emphasis on music and shifting degrees of difficulty. "",""originality-rating"":4,""originality-free-response"":""The game felt very original and very intentional in its game design. It had a very peaceful theme with very original game mechanics of aiming a ball a certain way so that it hits a specific ring at a certain time in accordance with other balls you are sending, so they solve the puzzle. The overall concept is very novel and the theme of water/serenity is clear."",""effectiveness-rating"":4,""effectiveness-free-response"":""The game was very enjoyable and challenging. It was very good at balancing a challenge with fun, and I never found myself bored. I think the instructions could have been a little clearer, but that was the only frustrating part for me. "",""authenticity-rating"":4,""attention-check"":3,""intentionality-rating"":5,""authenticity-intentionality-free-response"":""The authenticity of the game was very apparent as it was a mix of strategy, timing and music all bundled up in one game. The game took different pieces of various categories and inputted it into either the visual game design or the mechanical game design. It was very intentional in its effort to create a genuine and novel game experience. \n""}","evaluation-chat-3-orbit","survey","8","1885150","0.0-8.0","6501b789e3ddbc0a0b79b925","6987c292780adf01bb926159","69a4fcc2888d846e7607a041","","","","","","",""
"18657","","{""concept-creativity-rating"":5,""concept-implementation-rating"":5,""question1"":null}","concept-chat-3-orbit","survey","9","1903815","0.0-9.0","6501b789e3ddbc0a0b79b925","6987c292780adf01bb926159","69a4fcc2888d846e7607a041","","","","","","",""
"958","You have completed your evaluation of the second video game.<br><br>Press any key to proceed to the final game.","j","pre-game-three-message","html-keyboard-response","10","1904773","0.0-10.0","6501b789e3ddbc0a0b79b925","6987c292780adf01bb926159","69a4fcc2888d846e7607a041","","","","","","",""
"143998","","","game-claude-3-bureaucromancer","plugin-game-iframe","11","2048779","0.0-11.0","6501b789e3ddbc0a0b79b925","6987c292780adf01bb926159","69a4fcc2888d846e7607a041","game-complete","end:win","{""stage"":""end:win"",""detail"":{""won"":true,""score"":null,""casesProcessed"":22}}","{""result"":""win"",""score"":235,""casesProcessed"":22,""casesCorrect"":18,""casesMisfiled"":4,""bestStreak"":9,""dragonCorrect"":true}","null","[{""key"":""j"",""event"":""keyup"",""t"":90},{""key"":"" "",""event"":""keydown"",""t"":14260},{""key"":"" "",""event"":""keyup"",""t"":14359},{""key"":""Enter"",""event"":""keydown"",""t"":143982}]","[]"
"672713","","{""creativity-rating"":5,""creativity-free-response"":""The concept of the game was very creative; it had various working parts and required problem-solving skills, attention to detail, and being quick on your feet to avoid making as many errors as possible. "",""originality-rating"":4,""originality-free-response"":""The game felt very original and novel; it had strategic mechanics, a very compelling narrative and visually interesting aesthetics. that added to the overall feel of the game. The storytelling and environment building of the game, having the player roleplay as a security agent to vet monsters entering the area was very immersive and made it feel like the stakes were high. "",""effectiveness-rating"":5,""effectiveness-free-response"":""The game was very enjoyable to play. The level of detail was impressive, as it had many working parts from the aesthetic/vibe to the gameplay mechanics. The functionality was very simple, as in what buttons to click, but understanding when to click each button was the challenge. The entertainment value was very high as it was a fast-paced game of problem-solving and kept me very engaged. Everything worked very well, and there were no frustrating parts aside from there being very little time to make a decision, had to be very fast on my feet."",""attention-check"":3,""authenticity-rating"":5,""intentionality-rating"":5,""authenticity-intentionality-free-response"":""The authenticity of the game was very clear, as it seemed like a novel concept that was crafted from the idea that the player would have to utilize their problem-solving skills in a fast-paced environment. The addition of monsters and time limits also showed the authenticity. The game also felt very intentional and very high effort, as it had a great aesthetic and a very personal feeling of hard work. ""}","evaluation-claude-3-bureaucromancer","survey","12","2721513","0.0-12.0","6501b789e3ddbc0a0b79b925","6987c292780adf01bb926159","69a4fcc2888d846e7607a041","","","","","","",""
"7941","","{""concept-creativity-rating"":5,""concept-implementation-rating"":5,""question1"":null}","concept-claude-3-bureaucromancer","survey","13","2729462","0.0-13.0","6501b789e3ddbc0a0b79b925","6987c292780adf01bb926159","69a4fcc2888d846e7607a041","","","","","","",""
"2242","You have completed all of the games!<br><br>Press any key to proceed to some final questions before returning to Prolific.","f","pre-baseline-questions","html-keyboard-response","14","2731704","0.0-14.0","6501b789e3ddbc0a0b79b925","6987c292780adf01bb926159","69a4fcc2888d846e7607a041","","","","","","",""
"22485","","{""baseline_originality_rating"":4,""baseline_effectiveness_rating"":4,""baseline_authenticity_rating"":3,""baseline_intentionality_rating"":4}","baseline-questions-rating","survey","15","2754196","0.0-15.0","6501b789e3ddbc0a0b79b925","6987c292780adf01bb926159","69a4fcc2888d846e7607a041","","","","","","",""
"43160","","{""ai_aware_question"":""Not at all, I assessed them based on the criteria that was given to me""}","ai-aware-question","survey","16","2797361","0.0-16.0","6501b789e3ddbc0a0b79b925","6987c292780adf01bb926159","69a4fcc2888d846e7607a041","","","","","","",""
"3277","
        <p> You have completed the experiment! Press any key to save your data and get redirected back to Prolific. <strong>Please do not close the page until you have been redirected to Prolific.</strong> <p>
      ","f","goodbye","html-keyboard-response","17","2800638","0.0-17.0","6501b789e3ddbc0a0b79b925","6987c292780adf01bb926159","69a4fcc2888d846e7607a041","","","","","","",""
