"rt","stimulus","response","phase","trial_type","trial_index","time_elapsed","internal_node_id","prolific_subject_id","study_id","session_id","exit_reason","exit_stage","exit_progress","game_data","emergency_text","keystrokes","mouse_events"
"1542","Welcome! In this study, you will play three short video games, completing a short survey after each game.<br><br>Please make sure you are in a quiet environment where you can focus for the duration of the study. Some games may use sound, so please ensure that your device's volume is not muted.<br><br>Press any key to begin."," ","welcome-message","html-keyboard-response","0","1572","0.0-0.0","641359b5040c453203e2c088","6987c292780adf01bb926159","69a5f4a168c881f82b897592","","","","","","",""
"3650","","{""commitment-check"":[""yes""]}","commitment-check","survey","1","5356","0.0-1.0","641359b5040c453203e2c088","6987c292780adf01bb926159","69a5f4a168c881f82b897592","","","","","","",""
"6269","Press any key to proceed to the first video game. Should you encounter a game-breaking bug, please report the issue in the Menu tab to the right of the screen."," ","pre-game-one-message","html-keyboard-response","2","11629","0.0-2.0","641359b5040c453203e2c088","6987c292780adf01bb926159","69a5f4a168c881f82b897592","","","","","","",""
"66095","","","game-chat-5-glider","plugin-game-iframe","3","77762","0.0-3.0","641359b5040c453203e2c088","6987c292780adf01bb926159","69a5f4a168c881f82b897592","game-complete","finished","{""stage"":""finished"",""detail"":{""checkpointIndex"":3,""checkpointName"":""Tower"",""totalCheckpoints"":4,""finished"":true,""timeRemainingMs"":239086.18333334723,""bumps"":0,""resonanceCount"":5,""distancePct"":97}}","{""result"":""win"",""finishTimeMs"":60913.81666665277,""bumps"":0,""resonanceCount"":5}","null","[{""key"":"" "",""event"":""keyup"",""t"":143}]","[]"
"482279","","{""creativity-rating"":5,""creativity-free-response"":""It used physics to guide the plane instead of just the player."",""originality-rating"":5,""originality-free-response"":""It felt different than other paper plane games since it uses wind to guide the plane instead of the player's flicks."",""effectiveness-rating"":5,""effectiveness-free-response"":""The game was very enjoyable overall because the wind mechanic made guiding the paper plane feel interactive and skill based. Adjusting the wind to control the plane’s direction added strategy instead of just tapping or holding one button. The level of detail in how the plane reacted to stronger or weaker wind felt smooth and mostly realistic which made it satisfying when you successfully navigated obstacles."",""authenticity-rating"":4,""attention-check"":3,""intentionality-rating"":5,""authenticity-intentionality-free-response"":""Authenticity. The game felt authentic because the wind mechanics and plane movement behaved in a believable and consistent way. The reactions to changes in airflow made sense and added to the realism of guiding a paper plane rather than feeling random or artificial.\n\nIntentionality. The design choices seemed purposeful especially in how the wind influenced direction and difficulty. The obstacles and increasing challenge felt planned to test skill progression instead of being placed randomly.\n\nEffort. It was clear that effort was put into the functionality and responsiveness of the controls. The smooth movement and interactive wind system showed attention to detail even if some areas like sensitivity balancing could be improved slightly.""}","evaluation-chat-5-glider","survey","4","560168","0.0-4.0","641359b5040c453203e2c088","6987c292780adf01bb926159","69a5f4a168c881f82b897592","","","","","","",""
"4111","","{""concept-creativity-rating"":4,""concept-implementation-rating"":5,""question1"":null}","concept-chat-5-glider","survey","5","564373","0.0-5.0","641359b5040c453203e2c088","6987c292780adf01bb926159","69a5f4a168c881f82b897592","","","","","","",""
"1489","You have completed your evaluation of the first video game.<br><br>Press any key to proceed to the second game."," ","pre-game-two-message","html-keyboard-response","6","565868","0.0-6.0","641359b5040c453203e2c088","6987c292780adf01bb926159","69a5f4a168c881f82b897592","","","","","","",""
"592489","","","game-claude-1-light","plugin-game-iframe","7","1158378","0.0-7.0","641359b5040c453203e2c088","6987c292780adf01bb926159","69a5f4a168c881f82b897592","emergency-exit","level 2/7","{""stage"":""level 2/7"",""detail"":{""levelNum"":2,""currentForm"":""light"",""levelComplete"":false}}","null","The game is not ending.","[{""key"":"" "",""event"":""keyup"",""t"":127},{""key"":"" "",""event"":""keydown"",""t"":2013},{""key"":"" "",""event"":""keyup"",""t"":2151},{""key"":"" "",""event"":""keydown"",""t"":6073},{""key"":"" "",""event"":""keyup"",""t"":6360},{""key"":""ArrowRight"",""event"":""keydown"",""t"":7497},{""key"":""ArrowRight"",""event"":""keydown"",""t"":7993},{""key"":""ArrowRight"",""event"":""keyup"",""t"":8019},{""key"":""ArrowUp"",""event"":""keydown"",""t"":9471},{""key"":""ArrowRight"",""event"":""keydown"",""t"":9613},{""key"":""ArrowUp"",""event"":""keyup"",""t"":9682},{""key"":""ArrowRight"",""event"":""keydown"",""t"":10194},{""key"":""ArrowRight"",""event"":""keydown"",""t"":10229},{""key"":""ArrowRight"",""event"":""keyup"",""t"":10251},{""key"":""ArrowUp"",""event"":""keydown"",""t"":10462},{""key"":""ArrowUp"",""event"":""keyup"",""t"":10900},{""key"":""ArrowRight"",""event"":""keydown"",""t"":10964},{""key"":""ArrowRight"",""event"":""keydown"",""t"":11478},{""key"":""ArrowRight"",""event"":""keydown"",""t"":11510},{""key"":""ArrowRight"",""event"":""keydown"",""t"":11534},{""key"":""ArrowRight"",""event"":""keyup"",""t"":11562},{""key"":""ArrowRight"",""event"":""keydown"",""t"":11812},{""key"":""ArrowRight"",""event"":""keyup"",""t"":11994},{""key"":""ArrowUp"",""event"":""keydown"",""t"":12562},{""key"":""ArrowUp"",""event"":""keyup"",""t"":13012},{""key"":""ArrowLeft"",""event"":""keydown"",""t"":13530},{""key"":""ArrowLeft"",""event"":""keydown"",""t"":14037},{""key"":""ArrowLeft"",""event"":""keydown"",""t"":14066},{""key"":""ArrowLeft"",""event"":""keydown"",""t"":14098},{""key"":""ArrowLeft"",""event"":""keydown"",""t"":14146},{""key"":""ArrowLeft"",""event"":""keydown"",""t"":14178},{""key"":""ArrowLeft"",""event"":""keydown"",""t"":14210},{""key"":""ArrowLeft"",""event"":""keydown"",""t"":14243},{""key"":""ArrowLeft"",""event"":""keydown"",""t"":14269},{""key"":""ArrowLeft"",""event"":""keydown"",""t"":14299},{""key"":""ArrowLeft"",""event"":""keydown"",""t"":14331},{""key"":""ArrowLeft"",""event"":""keydown"",""t"":14362},{""key"":""ArrowLeft"",""event"":""keydown"",""t"":14409},{""key"":""ArrowLeft"",""event"":""keydown"",""t"":14443},{""key"":""ArrowLeft"",""event"":""keydown"",""t"":14470},{""key"":""ArrowLeft"",""event"":""keyup"",""t"":14493},{""key"":""ArrowRight"",""event"":""keydown"",""t"":15081},{""key"":""ArrowRight"",""event"":""keyup"",""t"":15242},{""key"":""ArrowLeft"",""event"":""keydown"",""t"":15828},{""key"":""ArrowLeft"",""event"":""keyup"",""t"":15939},{""key"":""ArrowUp"",""event"":""keydown"",""t"":15998},{""key"":""ArrowUp"",""event"":""keyup"",""t"":16060},{""key"":""ArrowLeft"",""event"":""keydown"",""t"":16080},{""key"":""ArrowLeft"",""event"":""keyup"",""t"":16326},{""key"":""ArrowRight"",""event"":""keydown"",""t"":16601},{""key"":""ArrowRight"",""event"":""keyup"",""t"":16981},{""key"":""ArrowUp"",""event"":""keydown"",""t"":18092},{""key"":""ArrowUp"",""event"":""keyup"",""t"":18302},{""key"":""ArrowLeft"",""event"":""keydown"",""t"":18644},{""key"":""ArrowLeft"",""event"":""keyup"",""t"":18976},{""key"":""ArrowRight"",""event"":""keydown"",""t"":19401},{""key"":""ArrowRight"",""event"":""keyup"",""t"":19659},{""key"":""ArrowLeft"",""event"":""keydown"",""t"":21411},{""key"":""ArrowLeft"",""event"":""keyup"",""t"":21580},{""key"":""ArrowUp"",""event"":""keydown"",""t"":23860},{""key"":""ArrowRight"",""event"":""keydown"",""t"":24092},{""key"":""ArrowRight"",""event"":""keyup"",""t"":24180},{""key"":""ArrowUp"",""event"":""keyup"",""t"":24230},{""key"":""ArrowUp"",""event"":""keydown"",""t"":25007},{""key"":""ArrowUp"",""event"":""keyup"",""t"":25242},{""key"":""ArrowUp"",""event"":""keydown"",""t"":25360},{""key"":""ArrowLeft"",""event"":""keydown"",""t"":25372},{""key"":""ArrowLeft"",""event"":""keyup"",""t"":25462},{""key"":""ArrowUp"",""event"":""keyup"",""t"":25527},{""key"":""ArrowLeft"",""event"":""keydown"",""t"":25810},{""key"":""ArrowLeft"",""event"":""keyup"",""t"":25841},{""key"":""ArrowLeft"",""event"":""keydown"",""t"":25882},{""key"":""ArrowLeft"",""event"":""keyup"",""t"":25993},{""key"":""ArrowRight"",""event"":""keydown"",""t"":27041},{""key"":""ArrowRight"",""event"":""keydown"",""t"":27549},{""key"":""ArrowRight"",""event"":""keydown"",""t"":27581},{""key"":""ArrowRight"",""event"":""keyup"",""t"":27591},{""key"":""ArrowLeft"",""event"":""keydown"",""t"":28290},{""key"":""ArrowLeft"",""event"":""keyup"",""t"":28561},{""key"":""ArrowLeft"",""event"":""keydown"",""t"":30672},{""key"":""ArrowLeft"",""event"":""keyup"",""t"":31160},{""key"":""ArrowRight"",""event"":""keydown"",""t"":31372},{""key"":""ArrowRight"",""event"":""keyup"",""t"":31871},{""key"":""ArrowUp"",""event"":""keydown"",""t"":32142},{""key"":""ArrowUp"",""event"":""keyup"",""t"":32242},{""key"":""ArrowUp"",""event"":""keydown"",""t"":32263},{""key"":""ArrowLeft"",""event"":""keydown"",""t"":32491},{""key"":""ArrowUp"",""event"":""keyup"",""t"":32731},{""key"":""ArrowLeft"",""event"":""keyup"",""t"":33041},{""key"":""ArrowRight"",""event"":""keydown"",""t"":33641},{""key"":""ArrowRight"",""event"":""keyup"",""t"":33787},{""key"":""ArrowRight"",""event"":""keydown"",""t"":33992},{""key"":""ArrowRight"",""event"":""keyup"",""t"":34042},{""key"":""ArrowRight"",""event"":""keydown"",""t"":34623},{""key"":""ArrowRight"",""event"":""keyup"",""t"":34672},{""key"":""ArrowRight"",""event"":""keydown"",""t"":36474},{""key"":""ArrowUp"",""event"":""keydown"",""t"":36685},{""key"":""ArrowUp"",""event"":""keyup"",""t"":36962},{""key"":""ArrowRight"",""event"":""keyup"",""t"":36992},{""key"":""ArrowLeft"",""event"":""keydown"",""t"":37471},{""key"":""ArrowLeft"",""event"":""keyup"",""t"":37868},{""key"":""ArrowRight"",""event"":""keydown"",""t"":38171},{""key"":""ArrowRight"",""event"":""keyup"",""t"":38341},{""key"":""ArrowUp"",""event"":""keydown"",""t"":39511},{""key"":""ArrowUp"",""event"":""keyup"",""t"":39711},{""key"":""ArrowUp"",""event"":""keydown"",""t"":40972},{""key"":""ArrowUp"",""event"":""keyup"",""t"":41142},{""key"":""ArrowLeft"",""event"":""keydown"",""t"":41436},{""key"":""ArrowLeft"",""event"":""keyup"",""t"":41700},{""key"":""ArrowRight"",""event"":""keydown"",""t"":42543},{""key"":""ArrowRight"",""event"":""keyup"",""t"":42619},{""key"":""ArrowRight"",""event"":""keydown"",""t"":44368},{""key"":""ArrowRight"",""event"":""keyup"",""t"":44772},{""key"":""ArrowLeft"",""event"":""keydown"",""t"":45310},{""key"":""ArrowLeft"",""event"":""keyup"",""t"":45573},{""key"":""ArrowRight"",""event"":""keydown"",""t"":50742},{""key"":""ArrowRight"",""event"":""keyup"",""t"":50772},{""key"":""ArrowRight"",""event"":""keydown"",""t"":50833},{""key"":""ArrowRight"",""event"":""keyup"",""t"":50953},{""key"":""ArrowRight"",""event"":""keydown"",""t"":51753},{""key"":""ArrowRight"",""event"":""keyup"",""t"":51886},{""key"":""ArrowLeft"",""event"":""keydown"",""t"":52570},{""key"":""ArrowLeft"",""event"":""keyup"",""t"":53033},{""key"":""ArrowRight"",""event"":""keydown"",""t"":53502},{""key"":""ArrowRight"",""event"":""keyup"",""t"":53640},{""key"":""ArrowUp"",""event"":""keydown"",""t"":56932},{""key"":""ArrowUp"",""event"":""keyup"",""t"":57369},{""key"":""ArrowUp"",""event"":""keydown"",""t"":64803},{""key"":""ArrowUp"",""event"":""keyup"",""t"":65294},{""key"":""ArrowUp"",""event"":""keydown"",""t"":65752},{""key"":""ArrowUp"",""event"":""keyup"",""t"":65900},{""key"":""ArrowUp"",""event"":""keydown"",""t"":66633},{""key"":""ArrowUp"",""event"":""keyup"",""t"":66777},{""key"":""ArrowUp"",""event"":""keydown"",""t"":66803},{""key"":""ArrowUp"",""event"":""keyup"",""t"":67002},{""key"":""ArrowUp"",""event"":""keydown"",""t"":67109},{""key"":""ArrowUp"",""event"":""keyup"",""t"":67294},{""key"":""ArrowRight"",""event"":""keydown"",""t"":68240},{""key"":""ArrowRight"",""event"":""keyup"",""t"":68409},{""key"":""ArrowRight"",""event"":""keydown"",""t"":68627},{""key"":""ArrowRight"",""event"":""keyup"",""t"":68732},{""key"":""ArrowRight"",""event"":""keydown"",""t"":69794},{""key"":""ArrowRight"",""event"":""keyup"",""t"":70111},{""key"":""ArrowLeft"",""event"":""keydown"",""t"":71012},{""key"":""ArrowLeft"",""event"":""keyup"",""t"":71426},{""key"":""ArrowRight"",""event"":""keydown"",""t"":71663},{""key"":""ArrowRight"",""event"":""keyup"",""t"":71771},{""key"":""ArrowRight"",""event"":""keydown"",""t"":73040},{""key"":""ArrowRight"",""event"":""keyup"",""t"":73263},{""key"":""ArrowLeft"",""event"":""keydown"",""t"":74944},{""key"":""ArrowLeft"",""event"":""keyup"",""t"":75131},{""key"":""ArrowUp"",""event"":""keydown"",""t"":83014},{""key"":""ArrowUp"",""event"":""keyup"",""t"":83055},{""key"":""ArrowUp"",""event"":""keydown"",""t"":84192},{""key"":""ArrowUp"",""event"":""keydown"",""t"":84709},{""key"":""ArrowUp"",""event"":""keydown"",""t"":84741},{""key"":""ArrowUp"",""event"":""keyup"",""t"":84757},{""key"":""ArrowUp"",""event"":""keydown"",""t"":85372},{""key"":""ArrowRight"",""event"":""keydown"",""t"":85524},{""key"":""ArrowUp"",""event"":""keyup"",""t"":85905},{""key"":""ArrowRight"",""event"":""keyup"",""t"":85993},{""key"":""ArrowRight"",""event"":""keydown"",""t"":86763},{""key"":""ArrowRight"",""event"":""keyup"",""t"":86886},{""key"":""ArrowUp"",""event"":""keydown"",""t"":88763},{""key"":""ArrowUp"",""event"":""keyup"",""t"":88838},{""key"":""ArrowUp"",""event"":""keydown"",""t"":88905},{""key"":""ArrowUp"",""event"":""keyup"",""t"":89141},{""key"":""ArrowRight"",""event"":""keydown"",""t"":89163},{""key"":""ArrowRight"",""event"":""keyup"",""t"":89304},{""key"":""ArrowUp"",""event"":""keydown"",""t"":90435},{""key"":""ArrowUp"",""event"":""keyup"",""t"":90645},{""key"":""ArrowUp"",""event"":""keydown"",""t"":91705},{""key"":""ArrowLeft"",""event"":""keydown"",""t"":91845},{""key"":""ArrowLeft"",""event"":""keyup"",""t"":91894},{""key"":""ArrowUp"",""event"":""keyup"",""t"":91937},{""key"":""ArrowUp"",""event"":""keydown"",""t"":91964},{""key"":""ArrowUp"",""event"":""keyup"",""t"":92064},{""key"":""ArrowLeft"",""event"":""keydown"",""t"":92273},{""key"":""ArrowLeft"",""event"":""keyup"",""t"":92682},{""key"":""ArrowRight"",""event"":""keydown"",""t"":92919},{""key"":""ArrowRight"",""event"":""keyup"",""t"":93204},{""key"":""ArrowRight"",""event"":""keydown"",""t"":94062},{""key"":""ArrowRight"",""event"":""keyup"",""t"":94324},{""key"":""ArrowUp"",""event"":""keydown"",""t"":94404},{""key"":""ArrowUp"",""event"":""keyup"",""t"":94406},{""key"":""ArrowLeft"",""event"":""keydown"",""t"":95019},{""key"":""ArrowLeft"",""event"":""keyup"",""t"":95154},{""key"":""ArrowUp"",""event"":""keydown"",""t"":95843},{""key"":""ArrowUp"",""event"":""keyup"",""t"":96334},{""key"":""ArrowRight"",""event"":""keydown"",""t"":96480},{""key"":""ArrowRight"",""event"":""keyup"",""t"":96572},{""key"":""ArrowUp"",""event"":""keydown"",""t"":97043},{""key"":""ArrowUp"",""event"":""keydown"",""t"":97548},{""key"":""ArrowUp"",""event"":""keydown"",""t"":97587},{""key"":""ArrowUp"",""event"":""keydown"",""t"":97619},{""key"":""ArrowUp"",""event"":""keydown"",""t"":97653},{""key"":""ArrowUp"",""event"":""keydown"",""t"":97683},{""key"":""ArrowUp"",""event"":""keydown"",""t"":97718},{""key"":""ArrowUp"",""event"":""keyup"",""t"":97722},{""key"":""ArrowUp"",""event"":""keydown"",""t"":98343},{""key"":""ArrowLeft"",""event"":""keydown"",""t"":98817},{""key"":""ArrowUp"",""event"":""keyup"",""t"":98865},{""key"":""ArrowLeft"",""event"":""keyup"",""t"":99143},{""key"":""ArrowRight"",""event"":""keydown"",""t"":99804},{""key"":""ArrowRight"",""event"":""keyup"",""t"":99883},{""key"":""ArrowRight"",""event"":""keydown"",""t"":100271},{""key"":""ArrowRight"",""event"":""keyup"",""t"":100331},{""key"":""ArrowUp"",""event"":""keydown"",""t"":102466},{""key"":""ArrowRight"",""event"":""keydown"",""t"":102641},{""key"":""ArrowUp"",""event"":""keyup"",""t"":103000},{""key"":""ArrowRight"",""event"":""keyup"",""t"":103167},{""key"":"" "",""event"":""keydown"",""t"":104303},{""key"":"" "",""event"":""keyup"",""t"":104473},{""key"":"" "",""event"":""keydown"",""t"":105203},{""key"":"" "",""event"":""keyup"",""t"":105365},{""key"":"" "",""event"":""keydown"",""t"":106603},{""key"":"" "",""event"":""keyup"",""t"":106813},{""key"":"" "",""event"":""keydown"",""t"":107145},{""key"":"" "",""event"":""keyup"",""t"":107496},{""key"":""ArrowLeft"",""event"":""keydown"",""t"":112403},{""key"":""ArrowLeft"",""event"":""keyup"",""t"":112531},{""key"":""ArrowRight"",""event"":""keydown"",""t"":117814},{""key"":""ArrowRight"",""event"":""keyup"",""t"":117995},{""key"":""ArrowLeft"",""event"":""keydown"",""t"":118980},{""key"":""ArrowLeft"",""event"":""keyup"",""t"":119427},{""key"":""ArrowRight"",""event"":""keydown"",""t"":119646},{""key"":""ArrowRight"",""event"":""keyup"",""t"":119807},{""key"":""ArrowLeft"",""event"":""keydown"",""t"":122614},{""key"":""ArrowLeft"",""event"":""keydown"",""t"":123126},{""key"":""ArrowLeft"",""event"":""keydown"",""t"":123159},{""key"":""ArrowLeft"",""event"":""keydown"",""t"":123193},{""key"":""ArrowLeft"",""event"":""keydown"",""t"":123226},{""key"":""ArrowLeft"",""event"":""keydown"",""t"":123248},{""key"":""ArrowLeft"",""event"":""keyup"",""t"":123259},{""key"":""ArrowRight"",""event"":""keydown"",""t"":123626},{""key"":""ArrowRight"",""event"":""keyup"",""t"":123814},{""key"":""ArrowRight"",""event"":""keydown"",""t"":124083},{""key"":""ArrowRight"",""event"":""keyup"",""t"":124177},{""key"":""ArrowLeft"",""event"":""keydown"",""t"":124475},{""key"":""ArrowLeft"",""event"":""keydown"",""t"":124997},{""key"":""ArrowLeft"",""event"":""keydown"",""t"":125027},{""key"":""ArrowLeft"",""event"":""keydown"",""t"":125060},{""key"":""ArrowLeft"",""event"":""keydown"",""t"":125081},{""key"":""ArrowLeft"",""event"":""keydown"",""t"":125112},{""key"":""ArrowLeft"",""event"":""keydown"",""t"":125143},{""key"":""ArrowRight"",""event"":""keydown"",""t"":125164},{""key"":""ArrowLeft"",""event"":""keyup"",""t"":125364},{""key"":""ArrowRight"",""event"":""keyup"",""t"":125811},{""key"":""ArrowRight"",""event"":""keydown"",""t"":260523},{""key"":""ArrowRight"",""event"":""keyup"",""t"":260837},{""key"":""ArrowLeft"",""event"":""keydown"",""t"":261232},{""key"":""ArrowLeft"",""event"":""keydown"",""t"":261733},{""key"":""ArrowLeft"",""event"":""keyup"",""t"":261766},{""key"":""ArrowRight"",""event"":""keydown"",""t"":262236},{""key"":""ArrowRight"",""event"":""keyup"",""t"":262337},{""key"":""ArrowUp"",""event"":""keydown"",""t"":264833},{""key"":""ArrowRight"",""event"":""keydown"",""t"":265233},{""key"":""ArrowUp"",""event"":""keyup"",""t"":265517},{""key"":""ArrowRight"",""event"":""keyup"",""t"":265633},{""key"":""ArrowRight"",""event"":""keydown"",""t"":265985},{""key"":""ArrowRight"",""event"":""keyup"",""t"":266182},{""key"":""ArrowUp"",""event"":""keydown"",""t"":266914},{""key"":""ArrowRight"",""event"":""keydown"",""t"":267263},{""key"":""ArrowUp"",""event"":""keyup"",""t"":267335},{""key"":""ArrowRight"",""event"":""keyup"",""t"":267566},{""key"":""ArrowRight"",""event"":""keydown"",""t"":268067},{""key"":""ArrowRight"",""event"":""keyup"",""t"":268186},{""key"":""ArrowRight"",""event"":""keydown"",""t"":269817},{""key"":""ArrowUp"",""event"":""keydown"",""t"":269865},{""key"":""ArrowUp"",""event"":""keyup"",""t"":269983},{""key"":""ArrowRight"",""event"":""keyup"",""t"":270615},{""key"":""ArrowRight"",""event"":""keydown"",""t"":271331},{""key"":""ArrowRight"",""event"":""keyup"",""t"":271486},{""key"":""ArrowRight"",""event"":""keydown"",""t"":272081},{""key"":""ArrowRight"",""event"":""keyup"",""t"":272231},{""key"":""ArrowLeft"",""event"":""keydown"",""t"":272897},{""key"":""ArrowLeft"",""event"":""keyup"",""t"":273235},{""key"":""ArrowLeft"",""event"":""keydown"",""t"":273515},{""key"":""ArrowLeft"",""event"":""keyup"",""t"":273614},{""key"":""ArrowLeft"",""event"":""keydown"",""t"":274215},{""key"":""ArrowLeft"",""event"":""keyup"",""t"":274329},{""key"":""ArrowLeft"",""event"":""keydown"",""t"":274462},{""key"":""ArrowLeft"",""event"":""keyup"",""t"":274532},{""key"":""ArrowLeft"",""event"":""keydown"",""t"":274730},{""key"":""ArrowLeft"",""event"":""keyup"",""t"":275013},{""key"":""ArrowUp"",""event"":""keydown"",""t"":275477},{""key"":""ArrowUp"",""event"":""keyup"",""t"":275665},{""key"":""ArrowUp"",""event"":""keydown"",""t"":276796},{""key"":""ArrowUp"",""event"":""keyup"",""t"":276845},{""key"":""ArrowLeft"",""event"":""keydown"",""t"":277567},{""key"":""ArrowLeft"",""event"":""keyup"",""t"":277711},{""key"":""ArrowRight"",""event"":""keydown"",""t"":278129},{""key"":""ArrowRight"",""event"":""keyup"",""t"":278294},{""key"":""ArrowUp"",""event"":""keydown"",""t"":279776},{""key"":""ArrowLeft"",""event"":""keydown"",""t"":280045},{""key"":""ArrowUp"",""event"":""keyup"",""t"":280066},{""key"":""ArrowRight"",""event"":""keydown"",""t"":280393},{""key"":""ArrowLeft"",""event"":""keyup"",""t"":280446},{""key"":""ArrowRight"",""event"":""keyup"",""t"":280515},{""key"":""ArrowRight"",""event"":""keydown"",""t"":280846},{""key"":""ArrowRight"",""event"":""keyup"",""t"":281246},{""key"":""ArrowRight"",""event"":""keydown"",""t"":281993},{""key"":""ArrowRight"",""event"":""keyup"",""t"":282365},{""key"":""ArrowLeft"",""event"":""keydown"",""t"":282565},{""key"":""ArrowLeft"",""event"":""keyup"",""t"":282895},{""key"":""ArrowRight"",""event"":""keydown"",""t"":283035},{""key"":""ArrowRight"",""event"":""keyup"",""t"":283195},{""key"":""ArrowRight"",""event"":""keydown"",""t"":284355},{""key"":""ArrowRight"",""event"":""keyup"",""t"":284745},{""key"":""ArrowRight"",""event"":""keydown"",""t"":284916},{""key"":""ArrowRight"",""event"":""keyup"",""t"":285126},{""key"":""ArrowRight"",""event"":""keydown"",""t"":286176},{""key"":""ArrowRight"",""event"":""keyup"",""t"":286261},{""key"":""ArrowRight"",""event"":""keydown"",""t"":286370},{""key"":""ArrowRight"",""event"":""keyup"",""t"":286395},{""key"":""ArrowRight"",""event"":""keydown"",""t"":287741},{""key"":""ArrowRight"",""event"":""keyup"",""t"":287790},{""key"":""ArrowUp"",""event"":""keydown"",""t"":289295},{""key"":""ArrowUp"",""event"":""keyup"",""t"":289791},{""key"":""ArrowUp"",""event"":""keydown"",""t"":290354},{""key"":""ArrowUp"",""event"":""keyup"",""t"":290746},{""key"":""ArrowUp"",""event"":""keydown"",""t"":291704},{""key"":""ArrowUp"",""event"":""keyup"",""t"":291947},{""key"":""ArrowLeft"",""event"":""keydown"",""t"":293072},{""key"":""ArrowLeft"",""event"":""keyup"",""t"":293575},{""key"":""ArrowRight"",""event"":""keydown"",""t"":293695},{""key"":""ArrowRight"",""event"":""keyup"",""t"":294075},{""key"":""ArrowRight"",""event"":""keydown"",""t"":294657},{""key"":""ArrowRight"",""event"":""keyup"",""t"":294758},{""key"":""ArrowLeft"",""event"":""keydown"",""t"":295989},{""key"":""ArrowLeft"",""event"":""keyup"",""t"":296357},{""key"":""ArrowRight"",""event"":""keydown"",""t"":296554},{""key"":""ArrowRight"",""event"":""keyup"",""t"":296871},{""key"":""ArrowLeft"",""event"":""keydown"",""t"":297441},{""key"":""ArrowLeft"",""event"":""keyup"",""t"":297764},{""key"":""ArrowRight"",""event"":""keydown"",""t"":298422},{""key"":""ArrowRight"",""event"":""keyup"",""t"":298577},{""key"":""ArrowLeft"",""event"":""keydown"",""t"":310951},{""key"":""ArrowLeft"",""event"":""keyup"",""t"":311149},{""key"":""ArrowRight"",""event"":""keydown"",""t"":476054},{""key"":""ArrowRight"",""event"":""keydown"",""t"":476557},{""key"":""ArrowRight"",""event"":""keydown"",""t"":476586},{""key"":""ArrowRight"",""event"":""keydown"",""t"":476634},{""key"":""ArrowRight"",""event"":""keydown"",""t"":476668},{""key"":""ArrowRight"",""event"":""keyup"",""t"":476670},{""key"":""ArrowRight"",""event"":""keydown"",""t"":476699},{""key"":""ArrowRight"",""event"":""keyup"",""t"":476834},{""key"":""Shift"",""event"":""keydown"",""t"":584635},{""key"":""T"",""event"":""keydown"",""t"":585033},{""key"":""T"",""event"":""keyup"",""t"":585119},{""key"":""Shift"",""event"":""keyup"",""t"":585263},{""key"":""b"",""event"":""keydown"",""t"":585298},{""key"":""b"",""event"":""keyup"",""t"":585332},{""key"":""Backspace"",""event"":""keydown"",""t"":585772},{""key"":""Backspace"",""event"":""keyup"",""t"":585920},{""key"":""h"",""event"":""keydown"",""t"":586449},{""key"":""h"",""event"":""keyup"",""t"":586547},{""key"":""e"",""event"":""keydown"",""t"":586596},{""key"":""e"",""event"":""keyup"",""t"":586671},{""key"":"" "",""event"":""keydown"",""t"":586702},{""key"":"" "",""event"":""keyup"",""t"":586832},{""key"":""g"",""event"":""keydown"",""t"":587348},{""key"":""g"",""event"":""keyup"",""t"":587420},{""key"":""a"",""event"":""keydown"",""t"":587434},{""key"":""a"",""event"":""keyup"",""t"":587543},{""key"":""m"",""event"":""keydown"",""t"":587680},{""key"":""m"",""event"":""keyup"",""t"":587832},{""key"":""e"",""event"":""keydown"",""t"":587848},{""key"":""e"",""event"":""keyup"",""t"":587914},{""key"":"" "",""event"":""keydown"",""t"":588001},{""key"":"" "",""event"":""keyup"",""t"":588148},{""key"":""i"",""event"":""keydown"",""t"":588632},{""key"":""i"",""event"":""keyup"",""t"":588767},{""key"":""s"",""event"":""keydown"",""t"":588849},{""key"":""s"",""event"":""keyup"",""t"":588940},{""key"":"" "",""event"":""keydown"",""t"":588949},{""key"":"" "",""event"":""keyup"",""t"":589079},{""key"":""n"",""event"":""keydown"",""t"":589183},{""key"":""n"",""event"":""keyup"",""t"":589278},{""key"":""o"",""event"":""keydown"",""t"":589467},{""key"":""o"",""event"":""keyup"",""t"":589595},{""key"":""t"",""event"":""keydown"",""t"":589832},{""key"":""t"",""event"":""keyup"",""t"":589930},{""key"":"" "",""event"":""keydown"",""t"":589951},{""key"":"" "",""event"":""keyup"",""t"":590059},{""key"":""e"",""event"":""keydown"",""t"":590213},{""key"":""e"",""event"":""keyup"",""t"":590282},{""key"":""n"",""event"":""keydown"",""t"":590284},{""key"":""n"",""event"":""keyup"",""t"":590382},{""key"":""d"",""event"":""keydown"",""t"":590483},{""key"":""d"",""event"":""keyup"",""t"":590550},{""key"":""i"",""event"":""keydown"",""t"":590593},{""key"":""i"",""event"":""keyup"",""t"":590728},{""key"":""n"",""event"":""keydown"",""t"":590750},{""key"":""g"",""event"":""keydown"",""t"":590820},{""key"":""n"",""event"":""keyup"",""t"":590829},{""key"":""g"",""event"":""keyup"",""t"":590928},{""key"":""."",""event"":""keydown"",""t"":591584},{""key"":""."",""event"":""keyup"",""t"":591666}]","[]"
"1961560","","{""creativity-rating"":4,""creativity-free-response"":""The concept of a ball of light climbing platforms to escape darkness felt creative because it used a simple idea to represent something deeper like hope versus danger. The contrast between light and darkness gave the game a clear theme and emotional tone instead of just being a basic platformer. The visual concept of rising upward to escape added symbolism and made progression feel meaningful."",""originality-free-response"":""The theme of light escaping darkness felt meaningful and visually strong which added some originality to the experience. The aesthetic of a glowing ball moving upward through shadowy platforms created a clear atmosphere and gave the game a distinct mood. The upward progression symbolizing escape or survival also added a narrative layer beyond simple platforming."",""originality-rating"":5,""effectiveness-rating"":4,""effectiveness-free-response"":""The game was enjoyable because the simple controls and clear objective made it easy to understand while still being challenging. The contrast between the glowing ball and the surrounding darkness created tension and kept the experience engaging. The platforming felt functional and responsive which made successful jumps satisfying."",""authenticity-rating"":5,""attention-check"":3,""intentionality-rating"":4,""authenticity-intentionality-free-response"":""The game felt authentic because even though platforming is a common genre the light versus darkness theme gave it a genuine identity instead of feeling like a direct copy of another game. The visual style and focused concept showed that the developer had a clear idea they wanted to express.\n\nIn terms of intentionality the design choices such as the upward progression and the pressure from darkness felt purposeful rather than random. The difficulty curve and atmosphere suggested planning and thought behind the experience.\n\nFor effort the functionality and consistent theme showed solid work put into the mechanics and presentation. While the gameplay was somewhat simple it still demonstrated care in design and execution which made it feel thoughtfully developed.\n\n""}","evaluation-claude-1-light","survey","8","3119969","0.0-8.0","641359b5040c453203e2c088","6987c292780adf01bb926159","69a5f4a168c881f82b897592","","","","","","",""
"3878","","{""concept-creativity-rating"":5,""concept-implementation-rating"":3,""question1"":null}","concept-claude-1-light","survey","9","3123879","0.0-9.0","641359b5040c453203e2c088","6987c292780adf01bb926159","69a5f4a168c881f82b897592","","","","","","",""
"1183","You have completed your evaluation of the second video game.<br><br>Press any key to proceed to the final game."," ","pre-game-three-message","html-keyboard-response","10","3125068","0.0-10.0","641359b5040c453203e2c088","6987c292780adf01bb926159","69a5f4a168c881f82b897592","","","","","","",""
"18593","","","game-gemini-3-suture","plugin-game-iframe","11","3143686","0.0-11.0","641359b5040c453203e2c088","6987c292780adf01bb926159","69a5f4a168c881f82b897592","game-complete","level 47/1","{""stage"":""level 47/1"",""detail"":{""levelIndex"":46,""levelNum"":47,""totalLevels"":1,""stitchesLeft"":3,""playerX"":817.3333333333306,""playerY"":240.5}}","{""result"":""win"",""levelsCompleted"":46}","null","[{""key"":"" "",""event"":""keyup"",""t"":102},{""key"":""ArrowRight"",""event"":""keydown"",""t"":3574},{""key"":""ArrowRight"",""event"":""keyup"",""t"":3711},{""key"":""ArrowRight"",""event"":""keydown"",""t"":3961},{""key"":""ArrowRight"",""event"":""keyup"",""t"":4173},{""key"":""ArrowRight"",""event"":""keydown"",""t"":4336},{""key"":""ArrowRight"",""event"":""keyup"",""t"":4529},{""key"":""ArrowUp"",""event"":""keydown"",""t"":5187},{""key"":""ArrowRight"",""event"":""keydown"",""t"":5511},{""key"":""ArrowUp"",""event"":""keyup"",""t"":5534},{""key"":""ArrowRight"",""event"":""keyup"",""t"":5636},{""key"":""ArrowRight"",""event"":""keydown"",""t"":7353},{""key"":""ArrowUp"",""event"":""keydown"",""t"":7711},{""key"":""ArrowUp"",""event"":""keyup"",""t"":8080},{""key"":""ArrowRight"",""event"":""keyup"",""t"":8090},{""key"":""ArrowRight"",""event"":""keydown"",""t"":9811},{""key"":""ArrowRight"",""event"":""keydown"",""t"":10317},{""key"":""ArrowRight"",""event"":""keydown"",""t"":10352},{""key"":""ArrowRight"",""event"":""keydown"",""t"":10384},{""key"":""ArrowRight"",""event"":""keydown"",""t"":10416},{""key"":""ArrowRight"",""event"":""keydown"",""t"":10449},{""key"":""ArrowRight"",""event"":""keydown"",""t"":10482},{""key"":""ArrowRight"",""event"":""keydown"",""t"":10516},{""key"":""ArrowUp"",""event"":""keydown"",""t"":10522},{""key"":""ArrowUp"",""event"":""keyup"",""t"":10990},{""key"":""ArrowRight"",""event"":""keyup"",""t"":12742},{""key"":""ArrowRight"",""event"":""keydown"",""t"":13041},{""key"":""ArrowRight"",""event"":""keyup"",""t"":13184},{""key"":""ArrowUp"",""event"":""keydown"",""t"":13681},{""key"":""ArrowUp"",""event"":""keyup"",""t"":14042},{""key"":"" "",""event"":""keydown"",""t"":17309},{""key"":"" "",""event"":""keyup"",""t"":17469},{""key"":""Enter"",""event"":""keydown"",""t"":18589}]","[]"
"199562","","{""creativity-rating"":2,""creativity-free-response"":""The concept of a cube jumping across platforms to reach a green cube is very simple and straightforward which makes it feel less creative compared to more unique or thematic games. Platform jumping as a mechanic is extremely common and the objective of reaching a goal object is also widely used in many games. There was not much in terms of narrative theme or visual originality that made it stand out."",""originality-free-response"":""The game felt unoriginal because jumping from platform to platform to reach a goal cube is a very common mechanic in puzzle and platform games. The theme and aesthetics, simple cubes with a target, were minimal and didn’t add unique narrative or visual interest. There were no surprising elements or twists in gameplay, so it mostly felt predictable."",""originality-rating"":2,""effectiveness-rating"":3,""effectiveness-free-response"":""The game was moderately enjoyable because the controls and mechanics were simple and easy to understand, which made it accessible and straightforward to play. Successfully timing jumps to reach the green cube gave a small sense of satisfaction and accomplishment.\n\nWhat worked well was the functionality, the cube responded predictably to player input, and the levels were clear in their objective. What was frustrating was the lack of variety or challenge beyond basic jumping; repeated platforming felt repetitive, and there were no unique visual or gameplay elements to keep it exciting over time. Overall it was functional and mildly entertaining, but somewhat basic.\n\n"",""authenticity-rating"":4,""attention-check"":3,""intentionality-rating"":5,""authenticity-intentionality-free-response"":""The game felt somewhat authentic because, although the mechanics are common, it still had a clear goal and consistent design that suggested the developer created it with purpose rather than just copying another game. In terms of intentionality, the level layouts and goal of reaching the green cube showed planning, even if the design was simple. The effort was evident in the functional controls and clean presentation, though the minimal graphics and basic mechanics suggest moderate rather than extensive development effort.""}","evaluation-gemini-3-suture","survey","12","3343295","0.0-12.0","641359b5040c453203e2c088","6987c292780adf01bb926159","69a5f4a168c881f82b897592","","","","","","",""
"4400","","{""concept-creativity-rating"":3,""concept-implementation-rating"":3,""question1"":null}","concept-gemini-3-suture","survey","13","3347721","0.0-13.0","641359b5040c453203e2c088","6987c292780adf01bb926159","69a5f4a168c881f82b897592","","","","","","",""
"1276","You have completed all of the games!<br><br>Press any key to proceed to some final questions before returning to Prolific."," ","pre-baseline-questions","html-keyboard-response","14","3349003","0.0-14.0","641359b5040c453203e2c088","6987c292780adf01bb926159","69a5f4a168c881f82b897592","","","","","","",""
"5263","","{""baseline_originality_rating"":4,""baseline_effectiveness_rating"":5,""baseline_authenticity_rating"":4,""baseline_intentionality_rating"":5}","baseline-questions-rating","survey","15","3354326","0.0-15.0","641359b5040c453203e2c088","6987c292780adf01bb926159","69a5f4a168c881f82b897592","","","","","","",""
"26900","","{""ai_blind_question"":""No, I don’t think I would have answered the previous questions differently. My ratings and explanations were based on my actual experience of the gameplay, mechanics, and design rather than who created the game. Even knowing the games were AI-generated, the enjoyment, creativity, originality, and sense of effort I perceived would remain the same because those assessments reflect how the game felt to play, not the developer’s identity.\n\n""}","ai-blind-question","survey","16","3381242","0.0-16.0","641359b5040c453203e2c088","6987c292780adf01bb926159","69a5f4a168c881f82b897592","","","","","","",""
"3189","
        <p> You have completed the experiment! Press any key to save your data and get redirected back to Prolific. <strong>Please do not close the page until you have been redirected to Prolific.</strong> <p>
      "," ","goodbye","html-keyboard-response","17","3384433","0.0-17.0","641359b5040c453203e2c088","6987c292780adf01bb926159","69a5f4a168c881f82b897592","","","","","","",""
