"rt","stimulus","response","phase","trial_type","trial_index","time_elapsed","internal_node_id","prolific_subject_id","study_id","session_id","exit_reason","exit_stage","exit_progress","game_data","emergency_text","keystrokes","mouse_events"
"9295","Welcome! In this study, you will play three short video games, completing a short survey after each game.<br><br>Please make sure you are in a quiet environment where you can focus for the duration of the study. Some games may use sound, so please ensure that your device's volume is not muted.<br><br>Press any key to begin."," ","welcome-message","html-keyboard-response","0","9305","0.0-0.0","697944af338eef9df5fe1845","6987c292780adf01bb926159","69a4ee9660c0c5241ef4cb1d","","","","","","",""
"6182","","{""commitment-check"":[""yes""]}","commitment-check","survey","1","15534","0.0-1.0","697944af338eef9df5fe1845","6987c292780adf01bb926159","69a4ee9660c0c5241ef4cb1d","","","","","","",""
"6447","Press any key to proceed to the first video game. Should you encounter a game-breaking bug, please report the issue in the Menu tab to the right of the screen.","control","pre-game-one-message","html-keyboard-response","2","21983","0.0-2.0","697944af338eef9df5fe1845","6987c292780adf01bb926159","69a4ee9660c0c5241ef4cb1d","","","","","","",""
"165985","","","game-claude-6-flame","plugin-game-iframe","3","187974","0.0-3.0","697944af338eef9df5fe1845","6987c292780adf01bb926159","69a4ee9660c0c5241ef4cb1d","game-complete","ending","{""stage"":""ending"",""detail"":{""distancePct"":96,""glowPhase"":4.7,""flamesPlaced"":3,""isDead"":false,""isEnding"":true}}","{""result"":""win"",""distance"":6168.8955452638575}","null","[{""key"":""AltGraph"",""event"":""keydown"",""t"":8},{""key"":""Control"",""event"":""keyup"",""t"":155},{""key"":""AltGraph"",""event"":""keyup"",""t"":159},{""key"":""Enter"",""event"":""keydown"",""t"":165976}]","[]"
"377157","","{""creativity-rating"":1,""creativity-free-response"":""There really wasn't anything to it, maybe I just didn't understand what I was supposed to do, but all I did was click to make the moth move and when I tried to take it to those dots that randomly appeared, nothing happened, so there wasn't really a point or motivation to play it."",""originality-rating"":2,""originality-free-response"":""I think it's not very original, it's similar to quite a lot of games. I guess the concept of directing a moth using light makes it a little unique, though. Nothing felt surprising or stood out to me "",""effectiveness-rating"":2,""effectiveness-free-response"":""I think at the begining it was nice to try and explore what needed to be done etc but there isnt much too it so eventually it felt kind off long "",""authenticity-rating"":3,""attention-check"":3,""intentionality-rating"":2,""authenticity-intentionality-free-response"":""I just think there isnt much too it, the idea is very basic it needs like a goal""}","evaluation-claude-6-flame","survey","4","565165","0.0-4.0","697944af338eef9df5fe1845","6987c292780adf01bb926159","69a4ee9660c0c5241ef4cb1d","","","","","","",""
"40459","","{""concept-creativity-rating"":4,""concept-implementation-rating"":4,""question1"":null}","concept-claude-6-flame","survey","5","605647","0.0-5.0","697944af338eef9df5fe1845","6987c292780adf01bb926159","69a4ee9660c0c5241ef4cb1d","","","","","","",""
"2359","You have completed your evaluation of the first video game.<br><br>Press any key to proceed to the second game."," ","pre-game-two-message","html-keyboard-response","6","608009","0.0-6.0","697944af338eef9df5fe1845","6987c292780adf01bb926159","69a4ee9660c0c5241ef4cb1d","","","","","","",""
"148178","","","game-claude-4-decibel","plugin-game-iframe","7","756198","0.0-7.0","697944af338eef9df5fe1845","6987c292780adf01bb926159","69a4ee9660c0c5241ef4cb1d","game-complete","silenced 4/4 (phase 5)","{""stage"":""silenced 4/4 (phase 5)"",""detail"":{""instrumentsSilenced"":4,""currentPhase"":5,""elapsedMs"":118502.17999999833,""score"":920}}","{""result"":""win"",""finalScore"":1284,""instrumentsSilenced"":4,""elapsedTime"":118502.17999999833}","null","[{""key"":"" "",""event"":""keyup"",""t"":140},{""key"":"" "",""event"":""keydown"",""t"":15906},{""key"":"" "",""event"":""keyup"",""t"":16039},{""key"":""d"",""event"":""keydown"",""t"":17693},{""key"":""d"",""event"":""keyup"",""t"":18027},{""key"":""a"",""event"":""keydown"",""t"":18177},{""key"":""a"",""event"":""keydown"",""t"":18776},{""key"":""a"",""event"":""keydown"",""t"":18807},{""key"":""a"",""event"":""keydown"",""t"":18843},{""key"":""a"",""event"":""keydown"",""t"":18868},{""key"":""a"",""event"":""keydown"",""t"":18896},{""key"":""a"",""event"":""keydown"",""t"":18925},{""key"":""a"",""event"":""keydown"",""t"":18955},{""key"":""a"",""event"":""keydown"",""t"":18985},{""key"":""a"",""event"":""keydown"",""t"":19018},{""key"":""a"",""event"":""keydown"",""t"":19046},{""key"":""a"",""event"":""keydown"",""t"":19076},{""key"":""a"",""event"":""keyup"",""t"":19106},{""key"":""a"",""event"":""keydown"",""t"":19420},{""key"":""a"",""event"":""keyup"",""t"":19629},{""key"":""d"",""event"":""keydown"",""t"":19943},{""key"":""d"",""event"":""keyup"",""t"":20168},{""key"":""w"",""event"":""keydown"",""t"":20687},{""key"":""w"",""event"":""keyup"",""t"":20882},{""key"":"" "",""event"":""keydown"",""t"":22483},{""key"":"" "",""event"":""keyup"",""t"":22730},{""key"":""w"",""event"":""keydown"",""t"":23051},{""key"":""w"",""event"":""keyup"",""t"":23297},{""key"":"" "",""event"":""keydown"",""t"":23371},{""key"":"" "",""event"":""keyup"",""t"":23825},{""key"":"" "",""event"":""keydown"",""t"":24129},{""key"":"" "",""event"":""keyup"",""t"":24369},{""key"":""w"",""event"":""keydown"",""t"":24373},{""key"":""w"",""event"":""keyup"",""t"":24574},{""key"":"" "",""event"":""keydown"",""t"":24638},{""key"":"" "",""event"":""keyup"",""t"":24813},{""key"":"" "",""event"":""keydown"",""t"":25252},{""key"":"" "",""event"":""keyup"",""t"":25401},{""key"":"" "",""event"":""keydown"",""t"":25850},{""key"":"" "",""event"":""keyup"",""t"":26000},{""key"":"" "",""event"":""keydown"",""t"":26634},{""key"":"" "",""event"":""keyup"",""t"":26811},{""key"":""a"",""event"":""keydown"",""t"":27110},{""key"":""a"",""event"":""keyup"",""t"":27213},{""key"":""w"",""event"":""keydown"",""t"":27412},{""key"":""w"",""event"":""keyup"",""t"":27572},{""key"":""d"",""event"":""keydown"",""t"":27836},{""key"":""d"",""event"":""keyup"",""t"":27943},{""key"":""s"",""event"":""keydown"",""t"":28220},{""key"":""s"",""event"":""keyup"",""t"":28334},{""key"":""a"",""event"":""keydown"",""t"":28520},{""key"":""a"",""event"":""keyup"",""t"":28639},{""key"":"" "",""event"":""keydown"",""t"":28875},{""key"":"" "",""event"":""keyup"",""t"":29009},{""key"":"" "",""event"":""keydown"",""t"":29433},{""key"":"" "",""event"":""keyup"",""t"":29608},{""key"":"" "",""event"":""keydown"",""t"":29981},{""key"":"" "",""event"":""keyup"",""t"":30121},{""key"":"" "",""event"":""keydown"",""t"":30425},{""key"":"" "",""event"":""keyup"",""t"":30584},{""key"":""a"",""event"":""keydown"",""t"":30869},{""key"":""a"",""event"":""keyup"",""t"":31043},{""key"":""s"",""event"":""keydown"",""t"":31129},{""key"":""s"",""event"":""keyup"",""t"":31278},{""key"":"" "",""event"":""keydown"",""t"":31491},{""key"":"" "",""event"":""keyup"",""t"":31627},{""key"":"" "",""event"":""keydown"",""t"":31923},{""key"":"" "",""event"":""keyup"",""t"":32042},{""key"":"" "",""event"":""keydown"",""t"":32350},{""key"":"" "",""event"":""keyup"",""t"":32527},{""key"":""s"",""event"":""keydown"",""t"":32784},{""key"":""s"",""event"":""keyup"",""t"":33074},{""key"":""w"",""event"":""keydown"",""t"":33324},{""key"":""w"",""event"":""keyup"",""t"":33539},{""key"":""a"",""event"":""keydown"",""t"":33683},{""key"":""a"",""event"":""keyup"",""t"":33823},{""key"":""s"",""event"":""keydown"",""t"":34067},{""key"":""s"",""event"":""keyup"",""t"":34197},{""key"":"" "",""event"":""keydown"",""t"":34810},{""key"":"" "",""event"":""keyup"",""t"":34975},{""key"":""s"",""event"":""keydown"",""t"":37169},{""key"":""s"",""event"":""keydown"",""t"":37764},{""key"":""s"",""event"":""keydown"",""t"":37793},{""key"":""s"",""event"":""keydown"",""t"":37823},{""key"":""s"",""event"":""keydown"",""t"":37854},{""key"":""s"",""event"":""keydown"",""t"":37886},{""key"":""s"",""event"":""keyup"",""t"":37893},{""key"":""s"",""event"":""keydown"",""t"":37993},{""key"":""s"",""event"":""keyup"",""t"":38300},{""key"":""s"",""event"":""keydown"",""t"":38634},{""key"":""s"",""event"":""keyup"",""t"":38706},{""key"":""w"",""event"":""keydown"",""t"":38991},{""key"":""w"",""event"":""keyup"",""t"":39167},{""key"":""d"",""event"":""keydown"",""t"":39534},{""key"":""d"",""event"":""keyup"",""t"":39635},{""key"":""a"",""event"":""keydown"",""t"":40039},{""key"":""a"",""event"":""keyup"",""t"":40109},{""key"":"" "",""event"":""keydown"",""t"":40303},{""key"":"" "",""event"":""keyup"",""t"":40467},{""key"":""d"",""event"":""keydown"",""t"":40837},{""key"":""d"",""event"":""keyup"",""t"":40991},{""key"":""s"",""event"":""keydown"",""t"":41421},{""key"":""s"",""event"":""keyup"",""t"":41521},{""key"":""w"",""event"":""keydown"",""t"":42398},{""key"":""w"",""event"":""keyup"",""t"":42499},{""key"":"" "",""event"":""keydown"",""t"":42680},{""key"":"" "",""event"":""keyup"",""t"":42848},{""key"":"" "",""event"":""keydown"",""t"":43256},{""key"":"" "",""event"":""keyup"",""t"":43436},{""key"":""s"",""event"":""keydown"",""t"":43846},{""key"":"" "",""event"":""keydown"",""t"":43863},{""key"":""s"",""event"":""keyup"",""t"":43950},{""key"":"" "",""event"":""keyup"",""t"":44020},{""key"":"" "",""event"":""keydown"",""t"":44349},{""key"":"" "",""event"":""keyup"",""t"":44525},{""key"":"" "",""event"":""keydown"",""t"":44814},{""key"":"" "",""event"":""keyup"",""t"":44979},{""key"":"" "",""event"":""keydown"",""t"":45108},{""key"":"" "",""event"":""keyup"",""t"":45267},{""key"":"" "",""event"":""keydown"",""t"":45495},{""key"":"" "",""event"":""keyup"",""t"":45671},{""key"":"" "",""event"":""keydown"",""t"":45906},{""key"":"" "",""event"":""keyup"",""t"":46061},{""key"":"" "",""event"":""keydown"",""t"":46477},{""key"":"" "",""event"":""keyup"",""t"":46654},{""key"":""w"",""event"":""keydown"",""t"":46979},{""key"":""w"",""event"":""keyup"",""t"":47118},{""key"":"" "",""event"":""keydown"",""t"":47238},{""key"":"" "",""event"":""keyup"",""t"":47394},{""key"":""d"",""event"":""keydown"",""t"":47801},{""key"":""d"",""event"":""keydown"",""t"":48401},{""key"":""d"",""event"":""keydown"",""t"":48430},{""key"":""d"",""event"":""keydown"",""t"":48462},{""key"":""d"",""event"":""keydown"",""t"":48492},{""key"":""d"",""event"":""keydown"",""t"":48521},{""key"":""d"",""event"":""keydown"",""t"":48550},{""key"":""d"",""event"":""keydown"",""t"":48580},{""key"":""w"",""event"":""keydown"",""t"":48600},{""key"":""w"",""event"":""keyup"",""t"":48900},{""key"":""d"",""event"":""keyup"",""t"":49878},{""key"":""d"",""event"":""keydown"",""t"":50534},{""key"":""d"",""event"":""keyup"",""t"":50670},{""key"":""a"",""event"":""keydown"",""t"":51000},{""key"":""a"",""event"":""keydown"",""t"":51598},{""key"":""a"",""event"":""keydown"",""t"":51628},{""key"":""a"",""event"":""keydown"",""t"":51658},{""key"":""a"",""event"":""keydown"",""t"":51690},{""key"":""a"",""event"":""keydown"",""t"":51718},{""key"":""a"",""event"":""keydown"",""t"":51748},{""key"":""a"",""event"":""keydown"",""t"":51778},{""key"":""a"",""event"":""keydown"",""t"":51808},{""key"":""a"",""event"":""keydown"",""t"":51840},{""key"":""a"",""event"":""keydown"",""t"":51868},{""key"":""a"",""event"":""keydown"",""t"":51898},{""key"":""a"",""event"":""keydown"",""t"":51928},{""key"":""a"",""event"":""keydown"",""t"":51957},{""key"":""a"",""event"":""keydown"",""t"":51992},{""key"":""a"",""event"":""keydown"",""t"":52018},{""key"":""a"",""event"":""keydown"",""t"":52048},{""key"":""a"",""event"":""keydown"",""t"":52078},{""key"":""a"",""event"":""keydown"",""t"":52107},{""key"":""a"",""event"":""keydown"",""t"":52139},{""key"":""a"",""event"":""keydown"",""t"":52167},{""key"":""a"",""event"":""keydown"",""t"":52197},{""key"":""a"",""event"":""keydown"",""t"":52227},{""key"":""a"",""event"":""keydown"",""t"":52257},{""key"":""a"",""event"":""keydown"",""t"":52290},{""key"":""a"",""event"":""keydown"",""t"":52317},{""key"":""a"",""event"":""keydown"",""t"":52347},{""key"":""a"",""event"":""keydown"",""t"":52378},{""key"":""a"",""event"":""keydown"",""t"":52407},{""key"":""a"",""event"":""keydown"",""t"":52440},{""key"":""a"",""event"":""keydown"",""t"":52468},{""key"":""a"",""event"":""keydown"",""t"":52497},{""key"":""a"",""event"":""keydown"",""t"":52530},{""key"":""a"",""event"":""keydown"",""t"":52557},{""key"":""a"",""event"":""keydown"",""t"":52591},{""key"":""a"",""event"":""keydown"",""t"":52616},{""key"":""a"",""event"":""keyup"",""t"":52646},{""key"":"" "",""event"":""keydown"",""t"":53743},{""key"":"" "",""event"":""keyup"",""t"":53893},{""key"":""a"",""event"":""keydown"",""t"":54133},{""key"":""a"",""event"":""keyup"",""t"":54283},{""key"":"" "",""event"":""keydown"",""t"":54363},{""key"":"" "",""event"":""keyup"",""t"":54527},{""key"":""d"",""event"":""keydown"",""t"":55005},{""key"":""w"",""event"":""keydown"",""t"":55396},{""key"":""w"",""event"":""keydown"",""t"":55994},{""key"":""w"",""event"":""keydown"",""t"":56024},{""key"":""w"",""event"":""keydown"",""t"":56054},{""key"":""w"",""event"":""keydown"",""t"":56086},{""key"":""w"",""event"":""keydown"",""t"":56113},{""key"":""w"",""event"":""keydown"",""t"":56144},{""key"":""w"",""event"":""keydown"",""t"":56174},{""key"":""w"",""event"":""keydown"",""t"":56204},{""key"":""w"",""event"":""keydown"",""t"":56236},{""key"":""w"",""event"":""keydown"",""t"":56264},{""key"":""w"",""event"":""keydown"",""t"":56293},{""key"":""w"",""event"":""keydown"",""t"":56323},{""key"":""w"",""event"":""keydown"",""t"":56354},{""key"":""w"",""event"":""keydown"",""t"":56387},{""key"":""w"",""event"":""keydown"",""t"":56413},{""key"":""w"",""event"":""keydown"",""t"":56443},{""key"":""w"",""event"":""keydown"",""t"":56473},{""key"":""w"",""event"":""keydown"",""t"":56504},{""key"":""w"",""event"":""keydown"",""t"":56536},{""key"":""w"",""event"":""keydown"",""t"":56563},{""key"":""w"",""event"":""keydown"",""t"":56592},{""key"":""w"",""event"":""keydown"",""t"":56623},{""key"":""w"",""event"":""keydown"",""t"":56653},{""key"":""w"",""event"":""keydown"",""t"":56686},{""key"":""w"",""event"":""keydown"",""t"":56712},{""key"":""w"",""event"":""keydown"",""t"":56742},{""key"":""w"",""event"":""keydown"",""t"":56772},{""key"":""w"",""event"":""keydown"",""t"":56802},{""key"":""w"",""event"":""keydown"",""t"":56832},{""key"":""w"",""event"":""keydown"",""t"":56862},{""key"":""w"",""event"":""keydown"",""t"":56892},{""key"":""w"",""event"":""keydown"",""t"":56922},{""key"":""w"",""event"":""keydown"",""t"":56953},{""key"":""w"",""event"":""keydown"",""t"":56982},{""key"":""w"",""event"":""keydown"",""t"":57012},{""key"":""w"",""event"":""keydown"",""t"":57042},{""key"":""w"",""event"":""keydown"",""t"":57072},{""key"":""w"",""event"":""keydown"",""t"":57102},{""key"":""w"",""event"":""keydown"",""t"":57131},{""key"":""w"",""event"":""keydown"",""t"":57161},{""key"":""d"",""event"":""keyup"",""t"":57172},{""key"":""w"",""event"":""keydown"",""t"":57191},{""key"":""w"",""event"":""keydown"",""t"":57221},{""key"":""w"",""event"":""keydown"",""t"":57252},{""key"":""w"",""event"":""keyup"",""t"":57271},{""key"":""d"",""event"":""keydown"",""t"":58601},{""key"":""d"",""event"":""keyup"",""t"":58743},{""key"":""d"",""event"":""keydown"",""t"":59268},{""key"":""d"",""event"":""keyup"",""t"":59368},{""key"":"" "",""event"":""keydown"",""t"":59867},{""key"":"" "",""event"":""keyup"",""t"":60060},{""key"":""w"",""event"":""keydown"",""t"":60334},{""key"":""w"",""event"":""keyup"",""t"":60483},{""key"":"" "",""event"":""keydown"",""t"":60574},{""key"":"" "",""event"":""keyup"",""t"":60738},{""key"":"" "",""event"":""keydown"",""t"":61201},{""key"":"" "",""event"":""keyup"",""t"":61368},{""key"":"" "",""event"":""keydown"",""t"":61841},{""key"":"" "",""event"":""keyup"",""t"":62016},{""key"":"" "",""event"":""keydown"",""t"":62349},{""key"":"" "",""event"":""keyup"",""t"":62525},{""key"":""s"",""event"":""keydown"",""t"":62685},{""key"":""s"",""event"":""keyup"",""t"":62814},{""key"":"" "",""event"":""keydown"",""t"":62939},{""key"":"" "",""event"":""keyup"",""t"":63074},{""key"":""w"",""event"":""keydown"",""t"":63597},{""key"":""w"",""event"":""keyup"",""t"":63698},{""key"":""s"",""event"":""keydown"",""t"":64846},{""key"":""s"",""event"":""keydown"",""t"":65445},{""key"":""s"",""event"":""keydown"",""t"":65474},{""key"":""s"",""event"":""keydown"",""t"":65503},{""key"":""s"",""event"":""keydown"",""t"":65533},{""key"":""s"",""event"":""keydown"",""t"":65563},{""key"":""s"",""event"":""keydown"",""t"":65596},{""key"":""s"",""event"":""keydown"",""t"":65623},{""key"":""s"",""event"":""keydown"",""t"":65653},{""key"":""s"",""event"":""keydown"",""t"":65683},{""key"":""s"",""event"":""keydown"",""t"":65714},{""key"":""s"",""event"":""keydown"",""t"":65746},{""key"":""s"",""event"":""keydown"",""t"":65773},{""key"":""s"",""event"":""keydown"",""t"":65803},{""key"":""s"",""event"":""keydown"",""t"":65832},{""key"":""s"",""event"":""keydown"",""t"":65868},{""key"":""s"",""event"":""keydown"",""t"":65895},{""key"":""s"",""event"":""keydown"",""t"":65922},{""key"":""s"",""event"":""keydown"",""t"":65953},{""key"":""s"",""event"":""keydown"",""t"":65982},{""key"":""s"",""event"":""keydown"",""t"":66013},{""key"":""s"",""event"":""keydown"",""t"":66045},{""key"":""s"",""event"":""keydown"",""t"":66073},{""key"":""s"",""event"":""keydown"",""t"":66103},{""key"":""s"",""event"":""keydown"",""t"":66132},{""key"":""s"",""event"":""keydown"",""t"":66162},{""key"":""s"",""event"":""keydown"",""t"":66194},{""key"":""s"",""event"":""keydown"",""t"":66222},{""key"":""s"",""event"":""keydown"",""t"":66252},{""key"":""s"",""event"":""keydown"",""t"":66282},{""key"":""s"",""event"":""keydown"",""t"":66312},{""key"":""s"",""event"":""keyup"",""t"":66332},{""key"":""s"",""event"":""keydown"",""t"":67100},{""key"":""s"",""event"":""keyup"",""t"":67234},{""key"":""s"",""event"":""keydown"",""t"":67614},{""key"":""s"",""event"":""keyup"",""t"":67764},{""key"":"" "",""event"":""keydown"",""t"":68418},{""key"":"" "",""event"":""keyup"",""t"":68587},{""key"":"" "",""event"":""keydown"",""t"":69385},{""key"":"" "",""event"":""keyup"",""t"":69584},{""key"":"" "",""event"":""keydown"",""t"":70404},{""key"":"" "",""event"":""keyup"",""t"":70603},{""key"":"" "",""event"":""keydown"",""t"":71675},{""key"":"" "",""event"":""keyup"",""t"":71864},{""key"":""a"",""event"":""keydown"",""t"":72294},{""key"":""a"",""event"":""keyup"",""t"":72356},{""key"":"" "",""event"":""keydown"",""t"":73102},{""key"":"" "",""event"":""keyup"",""t"":73257},{""key"":""w"",""event"":""keydown"",""t"":73722},{""key"":""w"",""event"":""keyup"",""t"":73822},{""key"":"" "",""event"":""keydown"",""t"":74388},{""key"":"" "",""event"":""keyup"",""t"":74554},{""key"":"" "",""event"":""keydown"",""t"":75587},{""key"":"" "",""event"":""keyup"",""t"":75754},{""key"":"" "",""event"":""keydown"",""t"":76802},{""key"":"" "",""event"":""keyup"",""t"":76969},{""key"":""a"",""event"":""keydown"",""t"":77907},{""key"":""a"",""event"":""keydown"",""t"":78505},{""key"":""a"",""event"":""keydown"",""t"":78535},{""key"":""a"",""event"":""keydown"",""t"":78568},{""key"":""a"",""event"":""keydown"",""t"":78596},{""key"":""a"",""event"":""keydown"",""t"":78625},{""key"":""a"",""event"":""keydown"",""t"":78655},{""key"":""a"",""event"":""keydown"",""t"":78686},{""key"":""a"",""event"":""keyup"",""t"":78705},{""key"":""a"",""event"":""keydown"",""t"":78959},{""key"":""a"",""event"":""keyup"",""t"":79218},{""key"":""w"",""event"":""keydown"",""t"":80103},{""key"":""w"",""event"":""keyup"",""t"":80202},{""key"":""a"",""event"":""keydown"",""t"":80501},{""key"":""a"",""event"":""keyup"",""t"":80606},{""key"":"" "",""event"":""keydown"",""t"":81436},{""key"":"" "",""event"":""keyup"",""t"":81599},{""key"":""a"",""event"":""keydown"",""t"":81803},{""key"":""a"",""event"":""keyup"",""t"":81919},{""key"":""s"",""event"":""keydown"",""t"":82323},{""key"":""s"",""event"":""keyup"",""t"":82493},{""key"":""a"",""event"":""keydown"",""t"":82648},{""key"":""a"",""event"":""keyup"",""t"":82817},{""key"":""a"",""event"":""keydown"",""t"":83036},{""key"":""a"",""event"":""keyup"",""t"":83305},{""key"":""a"",""event"":""keydown"",""t"":83505},{""key"":""a"",""event"":""keyup"",""t"":83969},{""key"":""s"",""event"":""keydown"",""t"":83974},{""key"":""s"",""event"":""keyup"",""t"":84419},{""key"":""d"",""event"":""keydown"",""t"":84867},{""key"":""d"",""event"":""keyup"",""t"":84997},{""key"":"" "",""event"":""keydown"",""t"":86304},{""key"":"" "",""event"":""keyup"",""t"":86499},{""key"":""w"",""event"":""keydown"",""t"":87011},{""key"":""w"",""event"":""keyup"",""t"":87124},{""key"":"" "",""event"":""keydown"",""t"":87444},{""key"":"" "",""event"":""keyup"",""t"":87622},{""key"":"" "",""event"":""keydown"",""t"":87861},{""key"":"" "",""event"":""keyup"",""t"":87996},{""key"":"" "",""event"":""keydown"",""t"":88136},{""key"":"" "",""event"":""keyup"",""t"":88280},{""key"":"" "",""event"":""keydown"",""t"":88490},{""key"":"" "",""event"":""keyup"",""t"":88654},{""key"":""w"",""event"":""keydown"",""t"":88776},{""key"":""w"",""event"":""keyup"",""t"":88943},{""key"":"" "",""event"":""keydown"",""t"":89068},{""key"":"" "",""event"":""keyup"",""t"":89248},{""key"":"" "",""event"":""keydown"",""t"":89329},{""key"":"" "",""event"":""keyup"",""t"":89483},{""key"":""s"",""event"":""keydown"",""t"":89752},{""key"":"" "",""event"":""keydown"",""t"":89811},{""key"":""s"",""event"":""keyup"",""t"":89871},{""key"":"" "",""event"":""keyup"",""t"":89966},{""key"":"" "",""event"":""keydown"",""t"":90046},{""key"":"" "",""event"":""keyup"",""t"":90215},{""key"":"" "",""event"":""keydown"",""t"":90301},{""key"":"" "",""event"":""keyup"",""t"":90448},{""key"":""w"",""event"":""keydown"",""t"":90615},{""key"":"" "",""event"":""keydown"",""t"":90650},{""key"":""w"",""event"":""keyup"",""t"":90707},{""key"":"" "",""event"":""keyup"",""t"":90779},{""key"":"" "",""event"":""keydown"",""t"":90892},{""key"":"" "",""event"":""keyup"",""t"":91049},{""key"":""d"",""event"":""keydown"",""t"":91341},{""key"":""d"",""event"":""keyup"",""t"":91414},{""key"":"" "",""event"":""keydown"",""t"":91667},{""key"":"" "",""event"":""keyup"",""t"":91832},{""key"":"" "",""event"":""keydown"",""t"":92023},{""key"":"" "",""event"":""keyup"",""t"":92202},{""key"":""d"",""event"":""keydown"",""t"":92226},{""key"":""d"",""event"":""keyup"",""t"":92331},{""key"":""s"",""event"":""keydown"",""t"":92856},{""key"":""s"",""event"":""keyup"",""t"":92975},{""key"":""s"",""event"":""keydown"",""t"":93529},{""key"":""s"",""event"":""keyup"",""t"":93713},{""key"":""s"",""event"":""keydown"",""t"":94132},{""key"":""s"",""event"":""keyup"",""t"":94577},{""key"":""w"",""event"":""keydown"",""t"":95516},{""key"":""w"",""event"":""keydown"",""t"":96113},{""key"":""w"",""event"":""keydown"",""t"":96143},{""key"":""w"",""event"":""keydown"",""t"":96173},{""key"":""w"",""event"":""keydown"",""t"":96203},{""key"":""w"",""event"":""keydown"",""t"":96237},{""key"":""w"",""event"":""keydown"",""t"":96263},{""key"":""w"",""event"":""keydown"",""t"":96293},{""key"":""w"",""event"":""keydown"",""t"":96323},{""key"":""w"",""event"":""keydown"",""t"":96354},{""key"":""w"",""event"":""keydown"",""t"":96387},{""key"":""w"",""event"":""keydown"",""t"":96413},{""key"":""w"",""event"":""keydown"",""t"":96442},{""key"":""w"",""event"":""keydown"",""t"":96472},{""key"":""w"",""event"":""keydown"",""t"":96503},{""key"":""w"",""event"":""keydown"",""t"":96532},{""key"":""w"",""event"":""keydown"",""t"":96563},{""key"":""w"",""event"":""keydown"",""t"":96592},{""key"":""w"",""event"":""keydown"",""t"":96622},{""key"":""w"",""event"":""keydown"",""t"":96653},{""key"":""w"",""event"":""keydown"",""t"":96682},{""key"":""w"",""event"":""keydown"",""t"":96712},{""key"":""w"",""event"":""keydown"",""t"":96741},{""key"":""w"",""event"":""keydown"",""t"":96772},{""key"":""w"",""event"":""keydown"",""t"":96803},{""key"":""w"",""event"":""keydown"",""t"":96832},{""key"":""w"",""event"":""keydown"",""t"":96862},{""key"":""w"",""event"":""keydown"",""t"":96892},{""key"":""a"",""event"":""keydown"",""t"":96906},{""key"":""a"",""event"":""keyup"",""t"":97203},{""key"":""w"",""event"":""keyup"",""t"":97211},{""key"":""s"",""event"":""keydown"",""t"":97387},{""key"":""s"",""event"":""keydown"",""t"":97986},{""key"":""s"",""event"":""keydown"",""t"":98019},{""key"":""s"",""event"":""keydown"",""t"":98044},{""key"":""s"",""event"":""keydown"",""t"":98074},{""key"":""s"",""event"":""keydown"",""t"":98105},{""key"":""s"",""event"":""keydown"",""t"":98136},{""key"":""s"",""event"":""keydown"",""t"":98164},{""key"":""s"",""event"":""keydown"",""t"":98196},{""key"":""s"",""event"":""keydown"",""t"":98224},{""key"":""s"",""event"":""keydown"",""t"":98254},{""key"":""s"",""event"":""keydown"",""t"":98286},{""key"":""s"",""event"":""keydown"",""t"":98318},{""key"":""s"",""event"":""keydown"",""t"":98345},{""key"":""s"",""event"":""keydown"",""t"":98376},{""key"":""s"",""event"":""keydown"",""t"":98404},{""key"":""s"",""event"":""keydown"",""t"":98435},{""key"":""s"",""event"":""keydown"",""t"":98463},{""key"":""s"",""event"":""keydown"",""t"":98493},{""key"":""s"",""event"":""keydown"",""t"":98523},{""key"":""s"",""event"":""keydown"",""t"":98553},{""key"":""s"",""event"":""keydown"",""t"":98586},{""key"":""s"",""event"":""keydown"",""t"":98614},{""key"":""s"",""event"":""keydown"",""t"":98643},{""key"":""s"",""event"":""keydown"",""t"":98673},{""key"":""s"",""event"":""keydown"",""t"":98703},{""key"":""s"",""event"":""keydown"",""t"":98735},{""key"":""s"",""event"":""keyup"",""t"":98753},{""key"":""d"",""event"":""keydown"",""t"":98992},{""key"":""d"",""event"":""keyup"",""t"":99152},{""key"":""s"",""event"":""keydown"",""t"":100040},{""key"":""s"",""event"":""keyup"",""t"":100333},{""key"":""d"",""event"":""keydown"",""t"":101068},{""key"":""d"",""event"":""keyup"",""t"":101399},{""key"":""d"",""event"":""keydown"",""t"":101649},{""key"":""d"",""event"":""keyup"",""t"":101955},{""key"":""w"",""event"":""keydown"",""t"":102225},{""key"":""w"",""event"":""keyup"",""t"":102576},{""key"":"" "",""event"":""keydown"",""t"":103552},{""key"":"" "",""event"":""keyup"",""t"":103732},{""key"":"" "",""event"":""keydown"",""t"":104397},{""key"":"" "",""event"":""keyup"",""t"":104581},{""key"":"" "",""event"":""keydown"",""t"":104770},{""key"":"" "",""event"":""keyup"",""t"":104954},{""key"":"" "",""event"":""keydown"",""t"":105104},{""key"":"" "",""event"":""keyup"",""t"":105258},{""key"":""a"",""event"":""keydown"",""t"":105363},{""key"":"" "",""event"":""keydown"",""t"":105429},{""key"":""a"",""event"":""keyup"",""t"":105448},{""key"":"" "",""event"":""keyup"",""t"":105538},{""key"":"" "",""event"":""keydown"",""t"":105623},{""key"":"" "",""event"":""keyup"",""t"":105779},{""key"":""a"",""event"":""keydown"",""t"":105783},{""key"":"" "",""event"":""keydown"",""t"":105867},{""key"":""a"",""event"":""keyup"",""t"":105902},{""key"":"" "",""event"":""keyup"",""t"":105979},{""key"":"" "",""event"":""keydown"",""t"":106057},{""key"":"" "",""event"":""keyup"",""t"":106221},{""key"":""s"",""event"":""keydown"",""t"":106441},{""key"":""s"",""event"":""keyup"",""t"":106611},{""key"":""a"",""event"":""keydown"",""t"":106828},{""key"":""a"",""event"":""keyup"",""t"":107045},{""key"":""s"",""event"":""keydown"",""t"":107462},{""key"":""s"",""event"":""keyup"",""t"":107627},{""key"":""s"",""event"":""keydown"",""t"":107653},{""key"":""s"",""event"":""keyup"",""t"":107783},{""key"":""a"",""event"":""keydown"",""t"":108010},{""key"":""a"",""event"":""keyup"",""t"":108138},{""key"":""s"",""event"":""keydown"",""t"":108513},{""key"":""s"",""event"":""keyup"",""t"":108662},{""key"":"" "",""event"":""keydown"",""t"":108682},{""key"":"" "",""event"":""keyup"",""t"":108826},{""key"":""a"",""event"":""keydown"",""t"":108993},{""key"":""a"",""event"":""keyup"",""t"":109130},{""key"":""w"",""event"":""keydown"",""t"":109500},{""key"":"" "",""event"":""keydown"",""t"":109515},{""key"":""w"",""event"":""keyup"",""t"":109560},{""key"":"" "",""event"":""keyup"",""t"":109679},{""key"":"" "",""event"":""keydown"",""t"":110528},{""key"":"" "",""event"":""keyup"",""t"":110667},{""key"":""d"",""event"":""keydown"",""t"":110932},{""key"":""d"",""event"":""keyup"",""t"":111057},{""key"":"" "",""event"":""keydown"",""t"":111127},{""key"":"" "",""event"":""keyup"",""t"":111276},{""key"":"" "",""event"":""keydown"",""t"":111347},{""key"":"" "",""event"":""keyup"",""t"":111495},{""key"":"" "",""event"":""keydown"",""t"":111575},{""key"":"" "",""event"":""keyup"",""t"":111674},{""key"":"" "",""event"":""keydown"",""t"":111775},{""key"":"" "",""event"":""keyup"",""t"":111881},{""key"":""a"",""event"":""keydown"",""t"":112007},{""key"":"" "",""event"":""keydown"",""t"":112060},{""key"":""a"",""event"":""keyup"",""t"":112091},{""key"":"" "",""event"":""keyup"",""t"":112200},{""key"":"" "",""event"":""keydown"",""t"":112306},{""key"":"" "",""event"":""keyup"",""t"":112424},{""key"":""a"",""event"":""keydown"",""t"":112428},{""key"":""a"",""event"":""keyup"",""t"":112548},{""key"":"" "",""event"":""keydown"",""t"":112740},{""key"":"" "",""event"":""keyup"",""t"":112898},{""key"":"" "",""event"":""keydown"",""t"":112992},{""key"":"" "",""event"":""keyup"",""t"":113132},{""key"":"" "",""event"":""keydown"",""t"":113299},{""key"":"" "",""event"":""keyup"",""t"":113402},{""key"":""d"",""event"":""keydown"",""t"":113777},{""key"":""d"",""event"":""keyup"",""t"":113939},{""key"":""w"",""event"":""keydown"",""t"":114195},{""key"":""w"",""event"":""keyup"",""t"":114346},{""key"":"" "",""event"":""keydown"",""t"":114934},{""key"":"" "",""event"":""keyup"",""t"":115071},{""key"":"" "",""event"":""keydown"",""t"":115379},{""key"":"" "",""event"":""keyup"",""t"":115554},{""key"":"" "",""event"":""keydown"",""t"":116241},{""key"":"" "",""event"":""keyup"",""t"":116436},{""key"":""w"",""event"":""keydown"",""t"":116959},{""key"":""w"",""event"":""keyup"",""t"":117079},{""key"":""d"",""event"":""keydown"",""t"":117223},{""key"":""d"",""event"":""keyup"",""t"":117344},{""key"":""w"",""event"":""keydown"",""t"":117579},{""key"":""w"",""event"":""keyup"",""t"":117843},{""key"":""s"",""event"":""keydown"",""t"":118277},{""key"":""s"",""event"":""keyup"",""t"":118397},{""key"":""s"",""event"":""keydown"",""t"":119040},{""key"":""s"",""event"":""keyup"",""t"":119185},{""key"":""s"",""event"":""keydown"",""t"":119670},{""key"":""s"",""event"":""keyup"",""t"":119801},{""key"":"" "",""event"":""keydown"",""t"":120304},{""key"":"" "",""event"":""keyup"",""t"":120463},{""key"":""w"",""event"":""keydown"",""t"":120951},{""key"":""w"",""event"":""keyup"",""t"":121077},{""key"":"" "",""event"":""keydown"",""t"":121700},{""key"":"" "",""event"":""keyup"",""t"":121869},{""key"":""w"",""event"":""keydown"",""t"":122275},{""key"":""w"",""event"":""keyup"",""t"":122428},{""key"":"" "",""event"":""keydown"",""t"":122733},{""key"":"" "",""event"":""keyup"",""t"":122877},{""key"":""s"",""event"":""keydown"",""t"":123137},{""key"":""s"",""event"":""keyup"",""t"":123232},{""key"":"" "",""event"":""keydown"",""t"":123465},{""key"":""a"",""event"":""keydown"",""t"":123631},{""key"":"" "",""event"":""keyup"",""t"":123656},{""key"":""a"",""event"":""keyup"",""t"":123751},{""key"":""s"",""event"":""keydown"",""t"":124181},{""key"":"" "",""event"":""keydown"",""t"":124190},{""key"":""s"",""event"":""keyup"",""t"":124314},{""key"":"" "",""event"":""keyup"",""t"":124381},{""key"":""a"",""event"":""keydown"",""t"":124447},{""key"":"" "",""event"":""keydown"",""t"":124454},{""key"":""a"",""event"":""keyup"",""t"":124499},{""key"":"" "",""event"":""keyup"",""t"":124599},{""key"":"" "",""event"":""keydown"",""t"":124659},{""key"":"" "",""event"":""keyup"",""t"":124798},{""key"":"" "",""event"":""keydown"",""t"":124864},{""key"":"" "",""event"":""keyup"",""t"":124964},{""key"":"" "",""event"":""keydown"",""t"":125046},{""key"":"" "",""event"":""keyup"",""t"":125138},{""key"":"" "",""event"":""keydown"",""t"":125233},{""key"":"" "",""event"":""keyup"",""t"":125318},{""key"":"" "",""event"":""keydown"",""t"":125402},{""key"":"" "",""event"":""keyup"",""t"":125486},{""key"":"" "",""event"":""keydown"",""t"":125579},{""key"":""w"",""event"":""keydown"",""t"":125649},{""key"":"" "",""event"":""keyup"",""t"":125667},{""key"":"" "",""event"":""keydown"",""t"":125762},{""key"":""w"",""event"":""keyup"",""t"":125830},{""key"":"" "",""event"":""keyup"",""t"":125841},{""key"":"" "",""event"":""keydown"",""t"":125936},{""key"":"" "",""event"":""keyup"",""t"":126021},{""key"":"" "",""event"":""keydown"",""t"":126137},{""key"":"" "",""event"":""keyup"",""t"":126222},{""key"":"" "",""event"":""keydown"",""t"":126329},{""key"":"" "",""event"":""keyup"",""t"":126405},{""key"":"" "",""event"":""keydown"",""t"":126535},{""key"":"" "",""event"":""keyup"",""t"":126604},{""key"":"" "",""event"":""keydown"",""t"":126719},{""key"":"" "",""event"":""keyup"",""t"":126784},{""key"":"" "",""event"":""keydown"",""t"":126899},{""key"":"" "",""event"":""keyup"",""t"":126969},{""key"":"" "",""event"":""keydown"",""t"":127104},{""key"":"" "",""event"":""keyup"",""t"":127169},{""key"":""s"",""event"":""keydown"",""t"":127195},{""key"":""s"",""event"":""keyup"",""t"":127311},{""key"":"" "",""event"":""keydown"",""t"":127339},{""key"":"" "",""event"":""keyup"",""t"":127418},{""key"":"" "",""event"":""keydown"",""t"":127594},{""key"":""a"",""event"":""keydown"",""t"":127603},{""key"":""a"",""event"":""keyup"",""t"":127702},{""key"":"" "",""event"":""keyup"",""t"":127712},{""key"":"" "",""event"":""keydown"",""t"":127832},{""key"":"" "",""event"":""keyup"",""t"":127912},{""key"":"" "",""event"":""keydown"",""t"":128106},{""key"":"" "",""event"":""keyup"",""t"":128171},{""key"":"" "",""event"":""keydown"",""t"":128286},{""key"":"" "",""event"":""keyup"",""t"":128362},{""key"":"" "",""event"":""keydown"",""t"":128481},{""key"":"" "",""event"":""keyup"",""t"":128555},{""key"":"" "",""event"":""keydown"",""t"":128670},{""key"":"" "",""event"":""keyup"",""t"":128745},{""key"":"" "",""event"":""keydown"",""t"":128860},{""key"":"" "",""event"":""keyup"",""t"":128920},{""key"":"" "",""event"":""keydown"",""t"":129034},{""key"":"" "",""event"":""keyup"",""t"":129110},{""key"":"" "",""event"":""keydown"",""t"":129234},{""key"":"" "",""event"":""keyup"",""t"":129329},{""key"":""w"",""event"":""keydown"",""t"":129343},{""key"":""w"",""event"":""keyup"",""t"":129478},{""key"":"" "",""event"":""keydown"",""t"":129638},{""key"":""d"",""event"":""keydown"",""t"":129678},{""key"":"" "",""event"":""keyup"",""t"":129738},{""key"":""d"",""event"":""keyup"",""t"":129782},{""key"":"" "",""event"":""keydown"",""t"":129937},{""key"":"" "",""event"":""keyup"",""t"":130017},{""key"":"" "",""event"":""keydown"",""t"":130159},{""key"":"" "",""event"":""keyup"",""t"":130217},{""key"":"" "",""event"":""keydown"",""t"":130371},{""key"":"" "",""event"":""keyup"",""t"":130462},{""key"":"" "",""event"":""keydown"",""t"":130577},{""key"":"" "",""event"":""keyup"",""t"":130661},{""key"":"" "",""event"":""keydown"",""t"":130780},{""key"":"" "",""event"":""keyup"",""t"":130861},{""key"":"" "",""event"":""keydown"",""t"":130986},{""key"":""a"",""event"":""keydown"",""t"":130996},{""key"":"" "",""event"":""keyup"",""t"":131070},{""key"":""a"",""event"":""keyup"",""t"":131120},{""key"":"" "",""event"":""keydown"",""t"":131225},{""key"":"" "",""event"":""keyup"",""t"":131324},{""key"":"" "",""event"":""keydown"",""t"":131444},{""key"":"" "",""event"":""keyup"",""t"":131529},{""key"":"" "",""event"":""keydown"",""t"":131654},{""key"":""s"",""event"":""keydown"",""t"":131714},{""key"":"" "",""event"":""keyup"",""t"":131769},{""key"":""s"",""event"":""keyup"",""t"":131798},{""key"":"" "",""event"":""keydown"",""t"":131958},{""key"":"" "",""event"":""keyup"",""t"":132068},{""key"":"" "",""event"":""keydown"",""t"":132198},{""key"":"" "",""event"":""keyup"",""t"":132290},{""key"":"" "",""event"":""keydown"",""t"":132407},{""key"":"" "",""event"":""keyup"",""t"":132489},{""key"":"" "",""event"":""keydown"",""t"":132597},{""key"":"" "",""event"":""keyup"",""t"":132678},{""key"":"" "",""event"":""keydown"",""t"":132797},{""key"":"" "",""event"":""keyup"",""t"":132867},{""key"":"" "",""event"":""keydown"",""t"":132991},{""key"":"" "",""event"":""keyup"",""t"":133074},{""key"":"" "",""event"":""keydown"",""t"":133191},{""key"":"" "",""event"":""keyup"",""t"":133281},{""key"":""d"",""event"":""keydown"",""t"":133423},{""key"":""d"",""event"":""keyup"",""t"":133550},{""key"":"" "",""event"":""keydown"",""t"":133716},{""key"":"" "",""event"":""keyup"",""t"":133845},{""key"":"" "",""event"":""keydown"",""t"":133972},{""key"":""w"",""event"":""keydown"",""t"":133985},{""key"":"" "",""event"":""keyup"",""t"":134085},{""key"":""w"",""event"":""keyup"",""t"":134094},{""key"":"" "",""event"":""keydown"",""t"":134208},{""key"":"" "",""event"":""keyup"",""t"":134335},{""key"":"" "",""event"":""keydown"",""t"":134439},{""key"":"" "",""event"":""keyup"",""t"":134548},{""key"":"" "",""event"":""keydown"",""t"":134673},{""key"":""a"",""event"":""keydown"",""t"":134684},{""key"":""a"",""event"":""keyup"",""t"":134789},{""key"":"" "",""event"":""keyup"",""t"":134892},{""key"":""s"",""event"":""keydown"",""t"":134977},{""key"":"" "",""event"":""keydown"",""t"":135004},{""key"":""s"",""event"":""keyup"",""t"":135073},{""key"":"" "",""event"":""keyup"",""t"":135289},{""key"":"" "",""event"":""keydown"",""t"":135455},{""key"":"" "",""event"":""keyup"",""t"":135527},{""key"":""s"",""event"":""keydown"",""t"":135771},{""key"":""s"",""event"":""keyup"",""t"":135846},{""key"":"" "",""event"":""keydown"",""t"":135880},{""key"":"" "",""event"":""keyup"",""t"":136005},{""key"":""Enter"",""event"":""keydown"",""t"":148161}]","[]"
"289851","","{""creativity-rating"":4,""creativity-free-response"":""I think its quite creatiive, havent seen or heard of anything similar before"",""originality-rating"":3,""originality-free-response"":""The idea that you go towards the circles and match their beats to eat them is cool, its kind off like pac man anf those music games so im not sure if its super original its like a mix of different games"",""effectiveness-rating"":4,""effectiveness-free-response"":""Its pretty enjoyable and it gets challenging as you progress which helps make it more fun"",""authenticity-rating"":3,""attention-check"":3,""intentionality-rating"":4,""authenticity-intentionality-free-response"":""I think the game developer had some intresting ideas but got inspiration from previous popular games and put their own twist to it""}","evaluation-claude-4-decibel","survey","8","1046080","0.0-8.0","697944af338eef9df5fe1845","6987c292780adf01bb926159","69a4ee9660c0c5241ef4cb1d","","","","","","",""
"44044","","{""concept-creativity-rating"":5,""concept-implementation-rating"":3,""question1"":null}","concept-claude-4-decibel","survey","9","1090146","0.0-9.0","697944af338eef9df5fe1845","6987c292780adf01bb926159","69a4ee9660c0c5241ef4cb1d","","","","","","",""
"2192","You have completed your evaluation of the second video game.<br><br>Press any key to proceed to the final game."," ","pre-game-three-message","html-keyboard-response","10","1092340","0.0-10.0","697944af338eef9df5fe1845","6987c292780adf01bb926159","69a4ee9660c0c5241ef4cb1d","","","","","","",""
"243975","","","game-gemini-4-substratum","plugin-game-iframe","11","1336326","0.0-11.0","697944af338eef9df5fe1845","6987c292780adf01bb926159","69a4ee9660c0c5241ef4cb1d","emergency-exit","level 2/3 15%","{""stage"":""level 2/3 15%"",""detail"":{""levelIndex"":1,""levelNum"":2,""totalLevels"":3,""progressPct"":15,""heroX"":116,""heroMoving"":true,""isGameOver"":false}}","null","Its not moving the blockd","[{""key"":"" "",""event"":""keyup"",""t"":183},{""key"":"" "",""event"":""keydown"",""t"":5111},{""key"":"" "",""event"":""keyup"",""t"":5256},{""key"":""CapsLock"",""event"":""keydown"",""t"":229598},{""key"":""CapsLock"",""event"":""keyup"",""t"":229703},{""key"":""I"",""event"":""keydown"",""t"":229810},{""key"":""I"",""event"":""keyup"",""t"":229913},{""key"":""CapsLock"",""event"":""keydown"",""t"":229919},{""key"":""CapsLock"",""event"":""keyup"",""t"":230043},{""key"":""t"",""event"":""keydown"",""t"":230170},{""key"":""t"",""event"":""keyup"",""t"":230269},{""key"":""s"",""event"":""keydown"",""t"":230454},{""key"":""s"",""event"":""keyup"",""t"":230618},{""key"":"" "",""event"":""keydown"",""t"":230759},{""key"":"" "",""event"":""keyup"",""t"":230921},{""key"":""n"",""event"":""keydown"",""t"":231840},{""key"":""n"",""event"":""keyup"",""t"":231899},{""key"":""o"",""event"":""keydown"",""t"":232285},{""key"":""o"",""event"":""keyup"",""t"":232379},{""key"":""t"",""event"":""keydown"",""t"":232415},{""key"":""t"",""event"":""keyup"",""t"":232492},{""key"":"" "",""event"":""keydown"",""t"":232664},{""key"":"" "",""event"":""keyup"",""t"":232764},{""key"":""m"",""event"":""keydown"",""t"":233108},{""key"":""m"",""event"":""keyup"",""t"":233262},{""key"":""o"",""event"":""keydown"",""t"":233567},{""key"":""o"",""event"":""keyup"",""t"":233703},{""key"":""v"",""event"":""keydown"",""t"":233727},{""key"":""v"",""event"":""keyup"",""t"":233832},{""key"":""i"",""event"":""keydown"",""t"":233836},{""key"":""i"",""event"":""keyup"",""t"":233901},{""key"":""n"",""event"":""keydown"",""t"":234081},{""key"":""n"",""event"":""keyup"",""t"":234186},{""key"":""g"",""event"":""keydown"",""t"":234211},{""key"":""g"",""event"":""keyup"",""t"":234290},{""key"":""t"",""event"":""keydown"",""t"":234490},{""key"":"" "",""event"":""keydown"",""t"":234539},{""key"":""t"",""event"":""keyup"",""t"":234566},{""key"":"" "",""event"":""keyup"",""t"":234646},{""key"":""Backspace"",""event"":""keydown"",""t"":236325},{""key"":""Backspace"",""event"":""keyup"",""t"":236408},{""key"":""Backspace"",""event"":""keydown"",""t"":236518},{""key"":""Backspace"",""event"":""keyup"",""t"":236615},{""key"":"" "",""event"":""keydown"",""t"":239404},{""key"":"" "",""event"":""keyup"",""t"":239524},{""key"":""t"",""event"":""keydown"",""t"":239630},{""key"":""t"",""event"":""keyup"",""t"":239685},{""key"":""h"",""event"":""keydown"",""t"":239838},{""key"":""h"",""event"":""keyup"",""t"":239894},{""key"":""e"",""event"":""keydown"",""t"":240028},{""key"":""e"",""event"":""keyup"",""t"":240152},{""key"":"" "",""event"":""keydown"",""t"":240234},{""key"":"" "",""event"":""keyup"",""t"":240398},{""key"":""b"",""event"":""keydown"",""t"":240506},{""key"":""b"",""event"":""keyup"",""t"":240579},{""key"":""l"",""event"":""keydown"",""t"":241097},{""key"":""l"",""event"":""keyup"",""t"":241175},{""key"":""o"",""event"":""keydown"",""t"":241317},{""key"":""o"",""event"":""keyup"",""t"":241391},{""key"":""c"",""event"":""keydown"",""t"":241465},{""key"":""c"",""event"":""keyup"",""t"":241570},{""key"":""k"",""event"":""keydown"",""t"":241601},{""key"":""k"",""event"":""keyup"",""t"":241701},{""key"":""d"",""event"":""keydown"",""t"":241924},{""key"":""d"",""event"":""keyup"",""t"":242059}]","[]"
"174996","","{""creativity-rating"":4,""creativity-free-response"":""Its something different that I havent seen before"",""originality-rating"":4,""originality-free-response"":""I think the concept of moving the surroundings to accommodate the square is unique."",""effectiveness-rating"":3,""effectiveness-free-response"":""It was enjoyable but I think the intructions need to be a bit clearer "",""authenticity-rating"":4,""attention-check"":3,""intentionality-rating"":4,""authenticity-intentionality-free-response"":""It felt genuine, I havent seen this type of concept before""}","evaluation-gemini-4-substratum","survey","12","1511347","0.0-12.0","697944af338eef9df5fe1845","6987c292780adf01bb926159","69a4ee9660c0c5241ef4cb1d","","","","","","",""
"4179","","{""concept-creativity-rating"":4,""concept-implementation-rating"":4,""question1"":null}","concept-gemini-4-substratum","survey","13","1515545","0.0-13.0","697944af338eef9df5fe1845","6987c292780adf01bb926159","69a4ee9660c0c5241ef4cb1d","","","","","","",""
"1871","You have completed all of the games!<br><br>Press any key to proceed to some final questions before returning to Prolific."," ","pre-baseline-questions","html-keyboard-response","14","1517418","0.0-14.0","697944af338eef9df5fe1845","6987c292780adf01bb926159","69a4ee9660c0c5241ef4cb1d","","","","","","",""
"23110","","{""baseline_originality_rating"":4,""baseline_effectiveness_rating"":5,""baseline_authenticity_rating"":3,""baseline_intentionality_rating"":2}","baseline-questions-rating","survey","15","1540554","0.0-15.0","697944af338eef9df5fe1845","6987c292780adf01bb926159","69a4ee9660c0c5241ef4cb1d","","","","","","",""
"90611","","{""ai_blind_question"":""Yes, knowing that its AI makes it feel less genuine and less authentic""}","ai-blind-question","survey","16","1631173","0.0-16.0","697944af338eef9df5fe1845","6987c292780adf01bb926159","69a4ee9660c0c5241ef4cb1d","","","","","","",""
"1866","
        <p> You have completed the experiment! Press any key to save your data and get redirected back to Prolific. <strong>Please do not close the page until you have been redirected to Prolific.</strong> <p>
      "," ","goodbye","html-keyboard-response","17","1633040","0.0-17.0","697944af338eef9df5fe1845","6987c292780adf01bb926159","69a4ee9660c0c5241ef4cb1d","","","","","","",""
