"rt","stimulus","response","phase","trial_type","trial_index","time_elapsed","internal_node_id","prolific_subject_id","study_id","session_id","exit_reason","exit_stage","exit_progress","game_data","emergency_text","keystrokes","mouse_events"
"1629","Welcome! In this study, you will play three short video games, completing a short survey after each game.<br><br>Please make sure you are in a quiet environment where you can focus for the duration of the study. Some games may use sound, so please ensure that your device's volume is not muted.<br><br>Press any key to begin."," ","welcome-message","html-keyboard-response","0","1630","0.0-0.0","61164e823465955346dc1827","6987c292780adf01bb926159","69a4faea93d249ec80034fa7","","","","","","",""
"34816","","{""commitment-check"":[""yes""]}","commitment-check","survey","1","36466","0.0-1.0","61164e823465955346dc1827","6987c292780adf01bb926159","69a4faea93d249ec80034fa7","","","","","","",""
"1048","Press any key to proceed to the first video game. Should you encounter a game-breaking bug, please report the issue in the Menu tab to the right of the screen."," ","pre-game-one-message","html-keyboard-response","2","37514","0.0-2.0","61164e823465955346dc1827","6987c292780adf01bb926159","69a4faea93d249ec80034fa7","","","","","","",""
"50373","","","game-chat-1-echo","plugin-game-iframe","3","87892","0.0-3.0","61164e823465955346dc1827","6987c292780adf01bb926159","69a4faea93d249ec80034fa7","game-complete","ended:win","{""stage"":""ended:win"",""detail"":{""gameState"":""WIN"",""relicCollected"":true,""exitOpen"":true,""alertsCount"":4,""timeLeftMs"":255384.68999998018}}","{""reason"":""WIN"",""alertsCount"":4,""timeLeft"":255384.68999998018}","null","[{""key"":"" "",""event"":""keyup"",""t"":515},{""key"":"" "",""event"":""keydown"",""t"":2232},{""key"":"" "",""event"":""keyup"",""t"":2414},{""key"":""d"",""event"":""keydown"",""t"":3874},{""key"":""d"",""event"":""keydown"",""t"":4380},{""key"":""d"",""event"":""keydown"",""t"":4409},{""key"":""d"",""event"":""keydown"",""t"":4440},{""key"":""d"",""event"":""keydown"",""t"":4471},{""key"":""d"",""event"":""keydown"",""t"":4500},{""key"":""d"",""event"":""keydown"",""t"":4530},{""key"":""d"",""event"":""keydown"",""t"":4562},{""key"":""s"",""event"":""keydown"",""t"":4583},{""key"":""s"",""event"":""keydown"",""t"":5100},{""key"":""s"",""event"":""keydown"",""t"":5131},{""key"":""s"",""event"":""keydown"",""t"":5161},{""key"":""s"",""event"":""keydown"",""t"":5192},{""key"":""s"",""event"":""keydown"",""t"":5222},{""key"":""s"",""event"":""keydown"",""t"":5252},{""key"":""s"",""event"":""keydown"",""t"":5285},{""key"":""s"",""event"":""keydown"",""t"":5314},{""key"":""s"",""event"":""keydown"",""t"":5348},{""key"":""s"",""event"":""keydown"",""t"":5376},{""key"":""s"",""event"":""keydown"",""t"":5405},{""key"":""s"",""event"":""keydown"",""t"":5460},{""key"":""s"",""event"":""keydown"",""t"":5466},{""key"":""s"",""event"":""keydown"",""t"":5496},{""key"":""s"",""event"":""keydown"",""t"":5529},{""key"":""s"",""event"":""keydown"",""t"":5557},{""key"":""s"",""event"":""keydown"",""t"":5590},{""key"":""s"",""event"":""keydown"",""t"":5619},{""key"":""s"",""event"":""keydown"",""t"":5651},{""key"":""s"",""event"":""keydown"",""t"":5681},{""key"":""s"",""event"":""keydown"",""t"":5710},{""key"":""s"",""event"":""keydown"",""t"":5743},{""key"":""d"",""event"":""keyup"",""t"":5757},{""key"":""s"",""event"":""keydown"",""t"":5771},{""key"":""s"",""event"":""keydown"",""t"":5802},{""key"":""s"",""event"":""keydown"",""t"":5834},{""key"":""s"",""event"":""keydown"",""t"":5869},{""key"":""s"",""event"":""keydown"",""t"":5906},{""key"":""s"",""event"":""keydown"",""t"":5938},{""key"":""s"",""event"":""keydown"",""t"":5967},{""key"":""s"",""event"":""keydown"",""t"":5997},{""key"":""s"",""event"":""keydown"",""t"":6028},{""key"":""s"",""event"":""keydown"",""t"":6058},{""key"":""s"",""event"":""keydown"",""t"":6089},{""key"":""s"",""event"":""keydown"",""t"":6119},{""key"":""s"",""event"":""keydown"",""t"":6149},{""key"":""s"",""event"":""keydown"",""t"":6181},{""key"":""s"",""event"":""keydown"",""t"":6211},{""key"":""s"",""event"":""keydown"",""t"":6241},{""key"":""s"",""event"":""keydown"",""t"":6272},{""key"":""s"",""event"":""keydown"",""t"":6303},{""key"":""s"",""event"":""keydown"",""t"":6334},{""key"":""s"",""event"":""keydown"",""t"":6363},{""key"":""s"",""event"":""keydown"",""t"":6394},{""key"":""s"",""event"":""keydown"",""t"":6425},{""key"":""s"",""event"":""keydown"",""t"":6454},{""key"":""s"",""event"":""keydown"",""t"":6485},{""key"":""s"",""event"":""keydown"",""t"":6517},{""key"":""s"",""event"":""keydown"",""t"":6546},{""key"":""s"",""event"":""keydown"",""t"":6579},{""key"":""s"",""event"":""keydown"",""t"":6606},{""key"":""s"",""event"":""keydown"",""t"":6638},{""key"":""s"",""event"":""keydown"",""t"":6670},{""key"":""s"",""event"":""keydown"",""t"":6699},{""key"":""s"",""event"":""keydown"",""t"":6732},{""key"":""s"",""event"":""keydown"",""t"":6760},{""key"":""s"",""event"":""keydown"",""t"":6790},{""key"":""s"",""event"":""keydown"",""t"":6821},{""key"":""s"",""event"":""keydown"",""t"":6851},{""key"":""s"",""event"":""keydown"",""t"":6884},{""key"":""s"",""event"":""keydown"",""t"":6926},{""key"":""s"",""event"":""keydown"",""t"":6955},{""key"":""s"",""event"":""keydown"",""t"":6988},{""key"":""s"",""event"":""keydown"",""t"":7017},{""key"":""s"",""event"":""keydown"",""t"":7047},{""key"":""s"",""event"":""keydown"",""t"":7079},{""key"":""d"",""event"":""keydown"",""t"":7094},{""key"":""s"",""event"":""keyup"",""t"":7247},{""key"":""d"",""event"":""keydown"",""t"":7600},{""key"":""d"",""event"":""keydown"",""t"":7629},{""key"":""d"",""event"":""keydown"",""t"":7659},{""key"":""d"",""event"":""keydown"",""t"":7691},{""key"":""d"",""event"":""keydown"",""t"":7720},{""key"":""d"",""event"":""keydown"",""t"":7753},{""key"":""d"",""event"":""keydown"",""t"":7782},{""key"":""d"",""event"":""keydown"",""t"":7816},{""key"":""d"",""event"":""keydown"",""t"":7845},{""key"":""d"",""event"":""keydown"",""t"":7878},{""key"":""d"",""event"":""keydown"",""t"":7908},{""key"":""d"",""event"":""keydown"",""t"":7950},{""key"":""d"",""event"":""keydown"",""t"":7983},{""key"":""d"",""event"":""keydown"",""t"":8012},{""key"":""d"",""event"":""keydown"",""t"":8041},{""key"":""d"",""event"":""keydown"",""t"":8073},{""key"":""d"",""event"":""keydown"",""t"":8102},{""key"":""d"",""event"":""keydown"",""t"":8132},{""key"":""d"",""event"":""keydown"",""t"":8164},{""key"":""d"",""event"":""keydown"",""t"":8193},{""key"":""d"",""event"":""keydown"",""t"":8224},{""key"":""d"",""event"":""keydown"",""t"":8256},{""key"":""d"",""event"":""keydown"",""t"":8284},{""key"":""d"",""event"":""keydown"",""t"":8316},{""key"":""d"",""event"":""keydown"",""t"":8345},{""key"":""d"",""event"":""keydown"",""t"":8376},{""key"":""d"",""event"":""keydown"",""t"":8408},{""key"":""d"",""event"":""keydown"",""t"":8436},{""key"":""d"",""event"":""keydown"",""t"":8467},{""key"":""d"",""event"":""keydown"",""t"":8498},{""key"":""d"",""event"":""keydown"",""t"":8529},{""key"":""d"",""event"":""keydown"",""t"":8561},{""key"":""d"",""event"":""keydown"",""t"":8591},{""key"":""d"",""event"":""keydown"",""t"":8626},{""key"":""d"",""event"":""keydown"",""t"":8652},{""key"":""d"",""event"":""keydown"",""t"":8685},{""key"":""d"",""event"":""keydown"",""t"":8715},{""key"":""d"",""event"":""keydown"",""t"":8749},{""key"":""d"",""event"":""keydown"",""t"":8778},{""key"":""d"",""event"":""keydown"",""t"":8810},{""key"":""d"",""event"":""keydown"",""t"":8839},{""key"":""d"",""event"":""keydown"",""t"":8870},{""key"":""d"",""event"":""keydown"",""t"":8901},{""key"":""d"",""event"":""keydown"",""t"":8934},{""key"":""d"",""event"":""keydown"",""t"":8972},{""key"":""d"",""event"":""keydown"",""t"":9008},{""key"":""d"",""event"":""keydown"",""t"":9041},{""key"":""d"",""event"":""keydown"",""t"":9069},{""key"":""d"",""event"":""keydown"",""t"":9098},{""key"":""d"",""event"":""keydown"",""t"":9131},{""key"":""d"",""event"":""keydown"",""t"":9160},{""key"":""d"",""event"":""keydown"",""t"":9190},{""key"":""d"",""event"":""keydown"",""t"":9222},{""key"":""d"",""event"":""keydown"",""t"":9251},{""key"":""d"",""event"":""keydown"",""t"":9283},{""key"":""d"",""event"":""keydown"",""t"":9312},{""key"":""d"",""event"":""keydown"",""t"":9343},{""key"":""d"",""event"":""keydown"",""t"":9374},{""key"":""d"",""event"":""keydown"",""t"":9403},{""key"":""d"",""event"":""keydown"",""t"":9434},{""key"":""d"",""event"":""keydown"",""t"":9465},{""key"":""d"",""event"":""keydown"",""t"":9494},{""key"":""d"",""event"":""keydown"",""t"":9527},{""key"":""d"",""event"":""keydown"",""t"":9555},{""key"":""d"",""event"":""keydown"",""t"":9588},{""key"":""d"",""event"":""keydown"",""t"":9618},{""key"":""d"",""event"":""keydown"",""t"":9649},{""key"":""d"",""event"":""keydown"",""t"":9681},{""key"":""d"",""event"":""keydown"",""t"":9712},{""key"":""d"",""event"":""keydown"",""t"":9742},{""key"":""d"",""event"":""keydown"",""t"":9773},{""key"":""d"",""event"":""keydown"",""t"":9805},{""key"":""d"",""event"":""keydown"",""t"":9836},{""key"":""d"",""event"":""keydown"",""t"":9868},{""key"":""d"",""event"":""keydown"",""t"":9898},{""key"":""d"",""event"":""keydown"",""t"":9928},{""key"":""d"",""event"":""keydown"",""t"":9959},{""key"":""d"",""event"":""keydown"",""t"":9995},{""key"":""d"",""event"":""keydown"",""t"":10035},{""key"":""d"",""event"":""keydown"",""t"":10066},{""key"":""d"",""event"":""keydown"",""t"":10098},{""key"":""d"",""event"":""keydown"",""t"":10128},{""key"":""d"",""event"":""keydown"",""t"":10160},{""key"":""d"",""event"":""keydown"",""t"":10189},{""key"":""d"",""event"":""keydown"",""t"":10220},{""key"":""d"",""event"":""keydown"",""t"":10250},{""key"":""d"",""event"":""keydown"",""t"":10280},{""key"":""d"",""event"":""keydown"",""t"":10313},{""key"":""d"",""event"":""keydown"",""t"":10341},{""key"":""d"",""event"":""keydown"",""t"":10371},{""key"":""d"",""event"":""keydown"",""t"":10403},{""key"":""d"",""event"":""keydown"",""t"":10432},{""key"":""d"",""event"":""keydown"",""t"":10462},{""key"":""d"",""event"":""keydown"",""t"":10494},{""key"":""d"",""event"":""keydown"",""t"":10523},{""key"":""d"",""event"":""keydown"",""t"":10553},{""key"":""d"",""event"":""keydown"",""t"":10584},{""key"":""d"",""event"":""keydown"",""t"":10614},{""key"":""d"",""event"":""keydown"",""t"":10646},{""key"":""d"",""event"":""keydown"",""t"":10676},{""key"":"" "",""event"":""keydown"",""t"":10689},{""key"":"" "",""event"":""keyup"",""t"":10802},{""key"":""d"",""event"":""keyup"",""t"":12240},{""key"":""w"",""event"":""keydown"",""t"":12241},{""key"":""w"",""event"":""keydown"",""t"":12743},{""key"":""w"",""event"":""keydown"",""t"":12775},{""key"":""w"",""event"":""keydown"",""t"":12805},{""key"":""w"",""event"":""keydown"",""t"":12837},{""key"":""Shift"",""event"":""keydown"",""t"":12861},{""key"":""W"",""event"":""keyup"",""t"":13011},{""key"":""Shift"",""event"":""keyup"",""t"":14382},{""key"":"" "",""event"":""keydown"",""t"":14652},{""key"":"" "",""event"":""keyup"",""t"":14822},{""key"":""Shift"",""event"":""keydown"",""t"":15921},{""key"":""W"",""event"":""keydown"",""t"":16339},{""key"":""W"",""event"":""keydown"",""t"":16843},{""key"":""W"",""event"":""keydown"",""t"":16873},{""key"":""W"",""event"":""keydown"",""t"":16904},{""key"":""W"",""event"":""keydown"",""t"":16934},{""key"":""W"",""event"":""keydown"",""t"":16964},{""key"":""W"",""event"":""keydown"",""t"":16996},{""key"":""W"",""event"":""keydown"",""t"":17025},{""key"":""D"",""event"":""keydown"",""t"":17046},{""key"":""D"",""event"":""keydown"",""t"":17567},{""key"":""D"",""event"":""keydown"",""t"":17595},{""key"":""D"",""event"":""keydown"",""t"":17625},{""key"":""D"",""event"":""keyup"",""t"":17646},{""key"":""D"",""event"":""keydown"",""t"":17872},{""key"":""W"",""event"":""keyup"",""t"":18089},{""key"":""D"",""event"":""keydown"",""t"":18388},{""key"":""D"",""event"":""keydown"",""t"":18417},{""key"":""D"",""event"":""keydown"",""t"":18450},{""key"":""D"",""event"":""keydown"",""t"":18478},{""key"":""S"",""event"":""keydown"",""t"":18506},{""key"":""D"",""event"":""keyup"",""t"":18693},{""key"":""S"",""event"":""keydown"",""t"":19009},{""key"":""D"",""event"":""keydown"",""t"":19010},{""key"":""S"",""event"":""keyup"",""t"":19167},{""key"":""D"",""event"":""keydown"",""t"":19530},{""key"":""D"",""event"":""keydown"",""t"":19562},{""key"":""D"",""event"":""keydown"",""t"":19591},{""key"":""D"",""event"":""keydown"",""t"":19621},{""key"":""D"",""event"":""keydown"",""t"":19653},{""key"":""D"",""event"":""keydown"",""t"":19683},{""key"":""D"",""event"":""keydown"",""t"":19716},{""key"":""D"",""event"":""keydown"",""t"":19744},{""key"":""D"",""event"":""keydown"",""t"":19774},{""key"":""D"",""event"":""keydown"",""t"":19807},{""key"":""D"",""event"":""keydown"",""t"":19837},{""key"":""D"",""event"":""keydown"",""t"":19870},{""key"":""W"",""event"":""keydown"",""t"":19870},{""key"":""D"",""event"":""keyup"",""t"":19956},{""key"":""W"",""event"":""keydown"",""t"":20391},{""key"":""W"",""event"":""keydown"",""t"":20419},{""key"":""W"",""event"":""keydown"",""t"":20448},{""key"":""W"",""event"":""keydown"",""t"":20481},{""key"":""W"",""event"":""keydown"",""t"":20510},{""key"":""W"",""event"":""keydown"",""t"":20540},{""key"":""W"",""event"":""keydown"",""t"":20576},{""key"":""W"",""event"":""keydown"",""t"":20600},{""key"":""W"",""event"":""keydown"",""t"":20630},{""key"":""W"",""event"":""keydown"",""t"":20662},{""key"":""W"",""event"":""keydown"",""t"":20692},{""key"":""W"",""event"":""keydown"",""t"":20724},{""key"":""W"",""event"":""keydown"",""t"":20753},{""key"":""W"",""event"":""keydown"",""t"":20782},{""key"":""W"",""event"":""keydown"",""t"":20815},{""key"":""W"",""event"":""keydown"",""t"":20843},{""key"":""W"",""event"":""keydown"",""t"":20878},{""key"":""W"",""event"":""keydown"",""t"":20905},{""key"":""W"",""event"":""keydown"",""t"":20935},{""key"":""W"",""event"":""keydown"",""t"":20965},{""key"":""W"",""event"":""keydown"",""t"":20995},{""key"":""W"",""event"":""keydown"",""t"":21027},{""key"":""W"",""event"":""keydown"",""t"":21058},{""key"":""W"",""event"":""keydown"",""t"":21087},{""key"":""W"",""event"":""keydown"",""t"":21117},{""key"":""D"",""event"":""keydown"",""t"":21120},{""key"":""W"",""event"":""keyup"",""t"":21185},{""key"":""W"",""event"":""keydown"",""t"":21511},{""key"":""D"",""event"":""keyup"",""t"":21624},{""key"":""D"",""event"":""keydown"",""t"":21803},{""key"":""W"",""event"":""keyup"",""t"":21817},{""key"":""D"",""event"":""keyup"",""t"":21977},{""key"":""S"",""event"":""keydown"",""t"":22150},{""key"":""S"",""event"":""keyup"",""t"":22283},{""key"":""A"",""event"":""keydown"",""t"":22376},{""key"":""A"",""event"":""keyup"",""t"":22463},{""key"":""S"",""event"":""keydown"",""t"":22863},{""key"":""S"",""event"":""keyup"",""t"":23181},{""key"":""S"",""event"":""keydown"",""t"":25363},{""key"":""A"",""event"":""keydown"",""t"":25669},{""key"":""S"",""event"":""keyup"",""t"":26022},{""key"":""A"",""event"":""keydown"",""t"":26173},{""key"":""A"",""event"":""keydown"",""t"":26205},{""key"":""A"",""event"":""keydown"",""t"":26233},{""key"":""A"",""event"":""keydown"",""t"":26265},{""key"":""A"",""event"":""keydown"",""t"":26295},{""key"":""A"",""event"":""keydown"",""t"":26325},{""key"":""A"",""event"":""keyup"",""t"":26337},{""key"":""Shift"",""event"":""keyup"",""t"":26361},{""key"":"" "",""event"":""keydown"",""t"":26476},{""key"":"" "",""event"":""keyup"",""t"":26605},{""key"":""a"",""event"":""keydown"",""t"":26846},{""key"":""a"",""event"":""keydown"",""t"":27352},{""key"":""a"",""event"":""keydown"",""t"":27381},{""key"":""a"",""event"":""keydown"",""t"":27412},{""key"":""a"",""event"":""keydown"",""t"":27447},{""key"":""a"",""event"":""keydown"",""t"":27486},{""key"":""a"",""event"":""keydown"",""t"":27517},{""key"":""a"",""event"":""keydown"",""t"":27547},{""key"":""a"",""event"":""keydown"",""t"":27577},{""key"":""a"",""event"":""keydown"",""t"":27607},{""key"":""a"",""event"":""keydown"",""t"":27639},{""key"":""a"",""event"":""keydown"",""t"":27668},{""key"":""s"",""event"":""keydown"",""t"":27696},{""key"":""a"",""event"":""keyup"",""t"":27771},{""key"":""s"",""event"":""keydown"",""t"":28202},{""key"":""s"",""event"":""keydown"",""t"":28231},{""key"":""s"",""event"":""keydown"",""t"":28263},{""key"":""s"",""event"":""keydown"",""t"":28291},{""key"":""s"",""event"":""keydown"",""t"":28323},{""key"":""s"",""event"":""keydown"",""t"":28355},{""key"":""s"",""event"":""keydown"",""t"":28384},{""key"":""s"",""event"":""keydown"",""t"":28417},{""key"":""s"",""event"":""keydown"",""t"":28445},{""key"":""s"",""event"":""keydown"",""t"":28481},{""key"":""s"",""event"":""keydown"",""t"":28521},{""key"":""s"",""event"":""keydown"",""t"":28549},{""key"":""s"",""event"":""keydown"",""t"":28583},{""key"":""s"",""event"":""keydown"",""t"":28612},{""key"":""s"",""event"":""keydown"",""t"":28641},{""key"":""s"",""event"":""keydown"",""t"":28672},{""key"":""s"",""event"":""keydown"",""t"":28702},{""key"":""s"",""event"":""keydown"",""t"":28732},{""key"":""a"",""event"":""keydown"",""t"":28758},{""key"":""s"",""event"":""keyup"",""t"":28806},{""key"":""s"",""event"":""keydown"",""t"":29147},{""key"":""a"",""event"":""keyup"",""t"":29249},{""key"":""Shift"",""event"":""keydown"",""t"":29564},{""key"":""D"",""event"":""keydown"",""t"":30093},{""key"":""D"",""event"":""keyup"",""t"":30393},{""key"":""D"",""event"":""keydown"",""t"":30630},{""key"":""D"",""event"":""keydown"",""t"":31134},{""key"":""D"",""event"":""keydown"",""t"":31163},{""key"":""D"",""event"":""keydown"",""t"":31193},{""key"":""D"",""event"":""keydown"",""t"":31225},{""key"":""D"",""event"":""keydown"",""t"":31254},{""key"":""D"",""event"":""keydown"",""t"":31284},{""key"":""D"",""event"":""keyup"",""t"":31301},{""key"":""A"",""event"":""keydown"",""t"":33379},{""key"":""S"",""event"":""keyup"",""t"":33625},{""key"":""A"",""event"":""keydown"",""t"":33899},{""key"":""A"",""event"":""keydown"",""t"":33932},{""key"":""A"",""event"":""keydown"",""t"":33960},{""key"":""A"",""event"":""keydown"",""t"":33991},{""key"":""A"",""event"":""keydown"",""t"":34022},{""key"":""A"",""event"":""keydown"",""t"":34051},{""key"":""A"",""event"":""keydown"",""t"":34082},{""key"":""A"",""event"":""keydown"",""t"":34113},{""key"":""A"",""event"":""keydown"",""t"":34142},{""key"":""A"",""event"":""keydown"",""t"":34174},{""key"":""A"",""event"":""keydown"",""t"":34203},{""key"":""A"",""event"":""keydown"",""t"":34233},{""key"":""A"",""event"":""keydown"",""t"":34266},{""key"":""A"",""event"":""keydown"",""t"":34295},{""key"":""A"",""event"":""keydown"",""t"":34329},{""key"":""A"",""event"":""keydown"",""t"":34356},{""key"":""A"",""event"":""keydown"",""t"":34387},{""key"":""A"",""event"":""keydown"",""t"":34418},{""key"":""A"",""event"":""keydown"",""t"":34447},{""key"":""A"",""event"":""keydown"",""t"":34478},{""key"":""A"",""event"":""keydown"",""t"":34509},{""key"":""A"",""event"":""keydown"",""t"":34538},{""key"":""A"",""event"":""keydown"",""t"":34572},{""key"":""A"",""event"":""keydown"",""t"":34601},{""key"":"" "",""event"":""keydown"",""t"":34602},{""key"":"" "",""event"":""keyup"",""t"":34661},{""key"":"" "",""event"":""keydown"",""t"":41875},{""key"":"" "",""event"":""keyup"",""t"":42009},{""key"":""W"",""event"":""keydown"",""t"":42600},{""key"":""A"",""event"":""keyup"",""t"":43098},{""key"":""W"",""event"":""keydown"",""t"":43122},{""key"":""W"",""event"":""keydown"",""t"":43154},{""key"":""W"",""event"":""keydown"",""t"":43183},{""key"":""W"",""event"":""keydown"",""t"":43214},{""key"":""W"",""event"":""keydown"",""t"":43244},{""key"":""W"",""event"":""keydown"",""t"":43275},{""key"":""W"",""event"":""keydown"",""t"":43307},{""key"":""W"",""event"":""keydown"",""t"":43335},{""key"":""W"",""event"":""keydown"",""t"":43365},{""key"":""W"",""event"":""keydown"",""t"":43398},{""key"":""W"",""event"":""keydown"",""t"":43426},{""key"":""W"",""event"":""keydown"",""t"":43456},{""key"":""W"",""event"":""keydown"",""t"":43487},{""key"":""W"",""event"":""keydown"",""t"":43516},{""key"":""W"",""event"":""keydown"",""t"":43547},{""key"":""W"",""event"":""keydown"",""t"":43579},{""key"":""W"",""event"":""keydown"",""t"":43608},{""key"":""W"",""event"":""keydown"",""t"":43638},{""key"":""W"",""event"":""keydown"",""t"":43670},{""key"":""W"",""event"":""keydown"",""t"":43724},{""key"":""W"",""event"":""keydown"",""t"":43734},{""key"":""W"",""event"":""keydown"",""t"":43761},{""key"":""W"",""event"":""keydown"",""t"":43794},{""key"":""W"",""event"":""keydown"",""t"":43821},{""key"":""W"",""event"":""keydown"",""t"":43852},{""key"":""W"",""event"":""keydown"",""t"":43892},{""key"":""W"",""event"":""keydown"",""t"":43927},{""key"":""W"",""event"":""keydown"",""t"":43957},{""key"":""W"",""event"":""keydown"",""t"":43988},{""key"":""W"",""event"":""keydown"",""t"":44018},{""key"":""W"",""event"":""keydown"",""t"":44048},{""key"":""W"",""event"":""keydown"",""t"":44081},{""key"":""W"",""event"":""keydown"",""t"":44109},{""key"":""W"",""event"":""keydown"",""t"":44141},{""key"":""W"",""event"":""keydown"",""t"":44171},{""key"":""W"",""event"":""keydown"",""t"":44201},{""key"":""W"",""event"":""keydown"",""t"":44231},{""key"":""W"",""event"":""keydown"",""t"":44261},{""key"":""W"",""event"":""keydown"",""t"":44292},{""key"":""W"",""event"":""keydown"",""t"":44322},{""key"":""W"",""event"":""keydown"",""t"":44353},{""key"":""W"",""event"":""keydown"",""t"":44384},{""key"":""W"",""event"":""keydown"",""t"":44413},{""key"":""W"",""event"":""keydown"",""t"":44443},{""key"":""W"",""event"":""keydown"",""t"":44475},{""key"":""W"",""event"":""keydown"",""t"":44528},{""key"":""W"",""event"":""keydown"",""t"":44534},{""key"":""W"",""event"":""keydown"",""t"":44566},{""key"":""W"",""event"":""keydown"",""t"":44598},{""key"":""W"",""event"":""keydown"",""t"":44625},{""key"":"" "",""event"":""keydown"",""t"":44637},{""key"":"" "",""event"":""keyup"",""t"":44844},{""key"":""W"",""event"":""keyup"",""t"":45090},{""key"":""W"",""event"":""keydown"",""t"":45247},{""key"":""Shift"",""event"":""keyup"",""t"":45460},{""key"":""a"",""event"":""keydown"",""t"":45701},{""key"":""a"",""event"":""keydown"",""t"":46216},{""key"":""a"",""event"":""keydown"",""t"":46246},{""key"":""a"",""event"":""keydown"",""t"":46278},{""key"":""a"",""event"":""keydown"",""t"":46309},{""key"":""a"",""event"":""keydown"",""t"":46339},{""key"":""a"",""event"":""keydown"",""t"":46370},{""key"":""w"",""event"":""keyup"",""t"":46395},{""key"":""a"",""event"":""keydown"",""t"":46401},{""key"":""a"",""event"":""keydown"",""t"":46430},{""key"":""a"",""event"":""keydown"",""t"":46461},{""key"":""a"",""event"":""keydown"",""t"":46493},{""key"":""a"",""event"":""keydown"",""t"":46521},{""key"":""a"",""event"":""keydown"",""t"":46554},{""key"":""a"",""event"":""keydown"",""t"":46583},{""key"":""a"",""event"":""keydown"",""t"":46613},{""key"":""a"",""event"":""keydown"",""t"":46646},{""key"":""a"",""event"":""keydown"",""t"":46676},{""key"":""a"",""event"":""keydown"",""t"":46708},{""key"":""a"",""event"":""keydown"",""t"":46736},{""key"":""a"",""event"":""keydown"",""t"":46767},{""key"":""a"",""event"":""keydown"",""t"":46799},{""key"":""a"",""event"":""keydown"",""t"":46827},{""key"":""s"",""event"":""keydown"",""t"":46829},{""key"":""a"",""event"":""keyup"",""t"":47120},{""key"":""s"",""event"":""keydown"",""t"":47347},{""key"":""s"",""event"":""keydown"",""t"":47376},{""key"":""s"",""event"":""keydown"",""t"":47410},{""key"":""s"",""event"":""keydown"",""t"":47438},{""key"":""s"",""event"":""keydown"",""t"":47469},{""key"":""s"",""event"":""keydown"",""t"":47500},{""key"":""s"",""event"":""keydown"",""t"":47529},{""key"":""s"",""event"":""keydown"",""t"":47560},{""key"":""s"",""event"":""keydown"",""t"":47591},{""key"":""s"",""event"":""keydown"",""t"":47623},{""key"":""s"",""event"":""keydown"",""t"":47653},{""key"":""s"",""event"":""keydown"",""t"":47687},{""key"":""s"",""event"":""keydown"",""t"":47713},{""key"":""s"",""event"":""keydown"",""t"":47744},{""key"":""s"",""event"":""keyup"",""t"":47766},{""key"":"" "",""event"":""keydown"",""t"":50366}]","[]"
"122525","","{""creativity-rating"":5,""creativity-free-response"":""game is really fun and creative with how you use echo location to triverse the dark scene"",""originality-rating"":5,""originality-free-response"":""its a genuine fun play with concept as well making it original from the normal games i play"",""effectiveness-rating"":5,""effectiveness-free-response"":""it froze once and couldnt continue but everything else was fun"",""authenticity-rating"":2,""attention-check"":3,""intentionality-rating"":5,""authenticity-intentionality-free-response"":""excho location dark scene is totaly authentic to me""}","evaluation-chat-1-echo","survey","4","210467","0.0-4.0","61164e823465955346dc1827","6987c292780adf01bb926159","69a4faea93d249ec80034fa7","","","","","","",""
"7542","","{""concept-creativity-rating"":5,""concept-implementation-rating"":5,""question1"":null}","concept-chat-1-echo","survey","5","218024","0.0-5.0","61164e823465955346dc1827","6987c292780adf01bb926159","69a4faea93d249ec80034fa7","","","","","","",""
"1499","You have completed your evaluation of the first video game.<br><br>Press any key to proceed to the second game."," ","pre-game-two-message","html-keyboard-response","6","219524","0.0-6.0","61164e823465955346dc1827","6987c292780adf01bb926159","69a4faea93d249ec80034fa7","","","","","","",""
"906563","","","game-chat-3-orbit","plugin-game-iframe","7","1126097","0.0-7.0","61164e823465955346dc1827","6987c292780adf01bb926159","69a4faea93d249ec80034fa7","game-complete","complete","{""stage"":""complete"",""detail"":{""state"":""complete"",""movementIndex"":2,""launchesUsed"":83,""phraseProgress"":8}}","{""result"":""win"",""accuracy"":29,""totalLaunches"":242,""onBeatLaunches"":70,""longestOrbit"":291.4167}","null","[{""key"":"" "",""event"":""keyup"",""t"":105},{""key"":""Enter"",""event"":""keydown"",""t"":4595},{""key"":""Enter"",""event"":""keyup"",""t"":4700},{""key"":""ArrowRight"",""event"":""keydown"",""t"":6982},{""key"":""ArrowRight"",""event"":""keydown"",""t"":7491},{""key"":""ArrowRight"",""event"":""keydown"",""t"":7523},{""key"":""ArrowRight"",""event"":""keyup"",""t"":7531},{""key"":""d"",""event"":""keydown"",""t"":8057},{""key"":""d"",""event"":""keyup"",""t"":8136},{""key"":""d"",""event"":""keydown"",""t"":8185},{""key"":""d"",""event"":""keyup"",""t"":8337},{""key"":"" "",""event"":""keydown"",""t"":14708},{""key"":"" "",""event"":""keyup"",""t"":14868},{""key"":""AudioVolumeDown"",""event"":""keydown"",""t"":17619},{""key"":""AudioVolumeDown"",""event"":""keydown"",""t"":18138},{""key"":""AudioVolumeDown"",""event"":""keydown"",""t"":18168},{""key"":""AudioVolumeDown"",""event"":""keydown"",""t"":18200},{""key"":""AudioVolumeDown"",""event"":""keydown"",""t"":18229},{""key"":""AudioVolumeDown"",""event"":""keydown"",""t"":18262},{""key"":""AudioVolumeDown"",""event"":""keyup"",""t"":18276},{""key"":""AudioVolumeDown"",""event"":""keydown"",""t"":18478},{""key"":""AudioVolumeDown"",""event"":""keyup"",""t"":18587},{""key"":""AudioVolumeDown"",""event"":""keydown"",""t"":18694},{""key"":""AudioVolumeDown"",""event"":""keyup"",""t"":18770},{""key"":""AudioVolumeDown"",""event"":""keydown"",""t"":19167},{""key"":""AudioVolumeDown"",""event"":""keyup"",""t"":19258},{""key"":""AudioVolumeDown"",""event"":""keydown"",""t"":19528},{""key"":""AudioVolumeDown"",""event"":""keyup"",""t"":19647},{""key"":""AudioVolumeDown"",""event"":""keydown"",""t"":21234},{""key"":""AudioVolumeDown"",""event"":""keyup"",""t"":21316},{""key"":""AudioVolumeDown"",""event"":""keydown"",""t"":21438},{""key"":""AudioVolumeDown"",""event"":""keyup"",""t"":21518},{""key"":""m"",""event"":""keydown"",""t"":95607},{""key"":""m"",""event"":""keyup"",""t"":95643},{""key"":""n"",""event"":""keydown"",""t"":148655},{""key"":""n"",""event"":""keyup"",""t"":148738},{""key"":""n"",""event"":""keydown"",""t"":151543},{""key"":""n"",""event"":""keyup"",""t"":151963},{""key"":""n"",""event"":""keydown"",""t"":152458},{""key"":""n"",""event"":""keyup"",""t"":152534},{""key"":""n"",""event"":""keydown"",""t"":152625},{""key"":""n"",""event"":""keyup"",""t"":152710},{""key"":""n"",""event"":""keydown"",""t"":152798},{""key"":""n"",""event"":""keyup"",""t"":152885},{""key"":""n"",""event"":""keydown"",""t"":152979},{""key"":""n"",""event"":""keyup"",""t"":153059},{""key"":""n"",""event"":""keydown"",""t"":153155},{""key"":""n"",""event"":""keyup"",""t"":153314},{""key"":""m"",""event"":""keydown"",""t"":153521},{""key"":""m"",""event"":""keyup"",""t"":153640},{""key"":""n"",""event"":""keydown"",""t"":154248},{""key"":""n"",""event"":""keyup"",""t"":154422},{""key"":""m"",""event"":""keydown"",""t"":156192},{""key"":""m"",""event"":""keyup"",""t"":156369},{""key"":""m"",""event"":""keydown"",""t"":157667},{""key"":""m"",""event"":""keyup"",""t"":157771},{""key"":""n"",""event"":""keydown"",""t"":158940},{""key"":""n"",""event"":""keydown"",""t"":159448},{""key"":""n"",""event"":""keydown"",""t"":159476},{""key"":""n"",""event"":""keydown"",""t"":159512},{""key"":""n"",""event"":""keydown"",""t"":159552},{""key"":""n"",""event"":""keydown"",""t"":159580},{""key"":""n"",""event"":""keydown"",""t"":159611},{""key"":""n"",""event"":""keyup"",""t"":159635},{""key"":""n"",""event"":""keydown"",""t"":159753},{""key"":""n"",""event"":""keyup"",""t"":159815},{""key"":""n"",""event"":""keydown"",""t"":159907},{""key"":""n"",""event"":""keyup"",""t"":159983},{""key"":""n"",""event"":""keydown"",""t"":160068},{""key"":""n"",""event"":""keyup"",""t"":160144},{""key"":""n"",""event"":""keydown"",""t"":160187},{""key"":""n"",""event"":""keyup"",""t"":160705},{""key"":""n"",""event"":""keydown"",""t"":160821},{""key"":""n"",""event"":""keyup"",""t"":160909},{""key"":""n"",""event"":""keydown"",""t"":161013},{""key"":""n"",""event"":""keyup"",""t"":161090},{""key"":""n"",""event"":""keydown"",""t"":161182},{""key"":""n"",""event"":""keyup"",""t"":161471},{""key"":""n"",""event"":""keydown"",""t"":161492},{""key"":""n"",""event"":""keydown"",""t"":162009},{""key"":""n"",""event"":""keydown"",""t"":162041},{""key"":""n"",""event"":""keydown"",""t"":162072},{""key"":""n"",""event"":""keyup"",""t"":162091},{""key"":""r"",""event"":""keydown"",""t"":162148},{""key"":""r"",""event"":""keyup"",""t"":162280},{""key"":""r"",""event"":""keydown"",""t"":162639},{""key"":""r"",""event"":""keyup"",""t"":162765},{""key"":""n"",""event"":""keydown"",""t"":163968},{""key"":""n"",""event"":""keyup"",""t"":164085},{""key"":""n"",""event"":""keydown"",""t"":164733},{""key"":""n"",""event"":""keyup"",""t"":164815},{""key"":""n"",""event"":""keydown"",""t"":164913},{""key"":""n"",""event"":""keyup"",""t"":165073},{""key"":""n"",""event"":""keydown"",""t"":165110},{""key"":""n"",""event"":""keyup"",""t"":165145},{""key"":""m"",""event"":""keydown"",""t"":165184},{""key"":""n"",""event"":""keydown"",""t"":165317},{""key"":""m"",""event"":""keyup"",""t"":165365},{""key"":""n"",""event"":""keyup"",""t"":165474},{""key"":""n"",""event"":""keydown"",""t"":174500},{""key"":""n"",""event"":""keyup"",""t"":174568},{""key"":""n"",""event"":""keydown"",""t"":299088},{""key"":""n"",""event"":""keyup"",""t"":299345},{""key"":""n"",""event"":""keydown"",""t"":334759},{""key"":""n"",""event"":""keyup"",""t"":334818},{""key"":""n"",""event"":""keydown"",""t"":334897},{""key"":""n"",""event"":""keyup"",""t"":334983},{""key"":""n"",""event"":""keydown"",""t"":416847},{""key"":""n"",""event"":""keyup"",""t"":416931},{""key"":""n"",""event"":""keydown"",""t"":416983},{""key"":""n"",""event"":""keyup"",""t"":417318},{""key"":""n"",""event"":""keydown"",""t"":463028},{""key"":""n"",""event"":""keyup"",""t"":463097},{""key"":""n"",""event"":""keydown"",""t"":463203},{""key"":""n"",""event"":""keydown"",""t"":463725},{""key"":""n"",""event"":""keydown"",""t"":463752},{""key"":""n"",""event"":""keyup"",""t"":463759},{""key"":""n"",""event"":""keydown"",""t"":463835},{""key"":""n"",""event"":""keyup"",""t"":463977},{""key"":""n"",""event"":""keydown"",""t"":464077},{""key"":""n"",""event"":""keyup"",""t"":464236},{""key"":""m"",""event"":""keydown"",""t"":464432},{""key"":""m"",""event"":""keyup"",""t"":464559},{""key"":""m"",""event"":""keydown"",""t"":465286},{""key"":""m"",""event"":""keyup"",""t"":465452},{""key"":""n"",""event"":""keydown"",""t"":465576},{""key"":""n"",""event"":""keyup"",""t"":465710},{""key"":""n"",""event"":""keydown"",""t"":465823},{""key"":""n"",""event"":""keyup"",""t"":465938},{""key"":""n"",""event"":""keydown"",""t"":466042},{""key"":""n"",""event"":""keyup"",""t"":466118},{""key"":""n"",""event"":""keydown"",""t"":466208},{""key"":""n"",""event"":""keydown"",""t"":466729},{""key"":""n"",""event"":""keydown"",""t"":466756},{""key"":""n"",""event"":""keydown"",""t"":466787},{""key"":""n"",""event"":""keydown"",""t"":466818},{""key"":""n"",""event"":""keydown"",""t"":466847},{""key"":""n"",""event"":""keydown"",""t"":466881},{""key"":""n"",""event"":""keydown"",""t"":466908},{""key"":""n"",""event"":""keydown"",""t"":466939},{""key"":""n"",""event"":""keydown"",""t"":466971},{""key"":""n"",""event"":""keydown"",""t"":467000},{""key"":""n"",""event"":""keydown"",""t"":467030},{""key"":""n"",""event"":""keydown"",""t"":467061},{""key"":""n"",""event"":""keydown"",""t"":467091},{""key"":""n"",""event"":""keydown"",""t"":467121},{""key"":""n"",""event"":""keydown"",""t"":467152},{""key"":""n"",""event"":""keydown"",""t"":467181},{""key"":""n"",""event"":""keydown"",""t"":467214},{""key"":""n"",""event"":""keydown"",""t"":467243},{""key"":""n"",""event"":""keydown"",""t"":467273},{""key"":""n"",""event"":""keydown"",""t"":467305},{""key"":""n"",""event"":""keydown"",""t"":467339},{""key"":""n"",""event"":""keydown"",""t"":467377},{""key"":""n"",""event"":""keydown"",""t"":467409},{""key"":""n"",""event"":""keydown"",""t"":467438},{""key"":""n"",""event"":""keydown"",""t"":467469},{""key"":""n"",""event"":""keydown"",""t"":467500},{""key"":""n"",""event"":""keydown"",""t"":467529},{""key"":""n"",""event"":""keydown"",""t"":467562},{""key"":""n"",""event"":""keydown"",""t"":467590},{""key"":""n"",""event"":""keydown"",""t"":467620},{""key"":""n"",""event"":""keydown"",""t"":467652},{""key"":""n"",""event"":""keydown"",""t"":467681},{""key"":""n"",""event"":""keydown"",""t"":467712},{""key"":""n"",""event"":""keydown"",""t"":467744},{""key"":""n"",""event"":""keyup"",""t"":467750},{""key"":""r"",""event"":""keydown"",""t"":469054},{""key"":""r"",""event"":""keyup"",""t"":469279},{""key"":""n"",""event"":""keydown"",""t"":551348},{""key"":""n"",""event"":""keyup"",""t"":551775},{""key"":""n"",""event"":""keydown"",""t"":552676},{""key"":""n"",""event"":""keyup"",""t"":552734},{""key"":""n"",""event"":""keydown"",""t"":552829},{""key"":""n"",""event"":""keyup"",""t"":552884},{""key"":""n"",""event"":""keydown"",""t"":552942},{""key"":""n"",""event"":""keyup"",""t"":553023},{""key"":"" "",""event"":""keydown"",""t"":558586},{""key"":"" "",""event"":""keyup"",""t"":558829},{""key"":""Shift"",""event"":""keydown"",""t"":562498},{""key"":""N"",""event"":""keydown"",""t"":563032},{""key"":""N"",""event"":""keydown"",""t"":563541},{""key"":""N"",""event"":""keydown"",""t"":563569},{""key"":""N"",""event"":""keydown"",""t"":563603},{""key"":""N"",""event"":""keydown"",""t"":563630},{""key"":""N"",""event"":""keydown"",""t"":563661},{""key"":""N"",""event"":""keyup"",""t"":563679},{""key"":""N"",""event"":""keydown"",""t"":563859},{""key"":""N"",""event"":""keyup"",""t"":564020},{""key"":""N"",""event"":""keydown"",""t"":564181},{""key"":""N"",""event"":""keyup"",""t"":564335},{""key"":""Shift"",""event"":""keyup"",""t"":566489},{""key"":""r"",""event"":""keydown"",""t"":569090},{""key"":""r"",""event"":""keyup"",""t"":569453},{""key"":""r"",""event"":""keydown"",""t"":569864},{""key"":""r"",""event"":""keyup"",""t"":570112},{""key"":""Shift"",""event"":""keydown"",""t"":570331},{""key"":""R"",""event"":""keydown"",""t"":570515},{""key"":""R"",""event"":""keyup"",""t"":570703},{""key"":""R"",""event"":""keydown"",""t"":570897},{""key"":""R"",""event"":""keyup"",""t"":571023},{""key"":""Shift"",""event"":""keyup"",""t"":571054},{""key"":""r"",""event"":""keydown"",""t"":575617},{""key"":""r"",""event"":""keyup"",""t"":575726},{""key"":""ArrowUp"",""event"":""keydown"",""t"":630668},{""key"":""ArrowRight"",""event"":""keydown"",""t"":630825},{""key"":""ArrowRight"",""event"":""keyup"",""t"":631026},{""key"":""ArrowLeft"",""event"":""keydown"",""t"":631029},{""key"":""ArrowUp"",""event"":""keyup"",""t"":631058},{""key"":""ArrowLeft"",""event"":""keyup"",""t"":631252},{""key"":""ArrowRight"",""event"":""keydown"",""t"":631267},{""key"":""ArrowDown"",""event"":""keydown"",""t"":631350},{""key"":""ArrowRight"",""event"":""keyup"",""t"":631516},{""key"":""ArrowDown"",""event"":""keyup"",""t"":631552},{""key"":""ArrowLeft"",""event"":""keydown"",""t"":631559},{""key"":""ArrowRight"",""event"":""keydown"",""t"":631721},{""key"":""ArrowLeft"",""event"":""keyup"",""t"":631741},{""key"":""ArrowRight"",""event"":""keyup"",""t"":631827},{""key"":""n"",""event"":""keydown"",""t"":672864},{""key"":""n"",""event"":""keydown"",""t"":673366},{""key"":""n"",""event"":""keydown"",""t"":673399},{""key"":""n"",""event"":""keydown"",""t"":673429},{""key"":""n"",""event"":""keydown"",""t"":673462},{""key"":""n"",""event"":""keydown"",""t"":673492},{""key"":""n"",""event"":""keydown"",""t"":673524},{""key"":""n"",""event"":""keydown"",""t"":673554},{""key"":""n"",""event"":""keyup"",""t"":673559},{""key"":""n"",""event"":""keydown"",""t"":673685},{""key"":""n"",""event"":""keyup"",""t"":673740},{""key"":""n"",""event"":""keydown"",""t"":673837},{""key"":""n"",""event"":""keyup"",""t"":673898},{""key"":""n"",""event"":""keydown"",""t"":673967},{""key"":""n"",""event"":""keyup"",""t"":674081},{""key"":""n"",""event"":""keydown"",""t"":674161},{""key"":""n"",""event"":""keyup"",""t"":674282},{""key"":""m"",""event"":""keydown"",""t"":674375},{""key"":""n"",""event"":""keydown"",""t"":674395},{""key"":""n"",""event"":""keyup"",""t"":674492},{""key"":""m"",""event"":""keyup"",""t"":674511},{""key"":""m"",""event"":""keydown"",""t"":674708},{""key"":""n"",""event"":""keydown"",""t"":674756},{""key"":""n"",""event"":""keyup"",""t"":674840},{""key"":""m"",""event"":""keyup"",""t"":674846},{""key"":""b"",""event"":""keydown"",""t"":675903},{""key"":""b"",""event"":""keyup"",""t"":676060},{""key"":""v"",""event"":""keydown"",""t"":676167},{""key"":""v"",""event"":""keyup"",""t"":676546},{""key"":""b"",""event"":""keydown"",""t"":676941},{""key"":""b"",""event"":""keyup"",""t"":677141},{""key"":""n"",""event"":""keydown"",""t"":791435},{""key"":""n"",""event"":""keyup"",""t"":791510},{""key"":""n"",""event"":""keydown"",""t"":895939},{""key"":""n"",""event"":""keyup"",""t"":896005},{""key"":"" "",""event"":""keydown"",""t"":897584},{""key"":"" "",""event"":""keyup"",""t"":897716},{""key"":""Enter"",""event"":""keydown"",""t"":906556}]","[]"
"94598","","{""creativity-rating"":1,""creativity-free-response"":""i didn't really understand the point of the game but it was so what interesting and weird"",""originality-rating"":2,""originality-free-response"":""the game was very confusing and reawed system didnt seem appealing what so ever as well"",""effectiveness-rating"":1,""effectiveness-free-response"":""the whole game in gerenal it made no sense to me"",""authenticity-rating"":2,""attention-check"":3,""intentionality-rating"":1,""authenticity-intentionality-free-response"":""soleley because i was confused""}","evaluation-chat-3-orbit","survey","8","1220713","0.0-8.0","61164e823465955346dc1827","6987c292780adf01bb926159","69a4faea93d249ec80034fa7","","","","","","",""
"7854","","{""concept-creativity-rating"":1,""concept-implementation-rating"":1,""question1"":null}","concept-chat-3-orbit","survey","9","1228577","0.0-9.0","61164e823465955346dc1827","6987c292780adf01bb926159","69a4faea93d249ec80034fa7","","","","","","",""
"1647","You have completed your evaluation of the second video game.<br><br>Press any key to proceed to the final game."," ","pre-game-three-message","html-keyboard-response","10","1230225","0.0-10.0","61164e823465955346dc1827","6987c292780adf01bb926159","69a4faea93d249ec80034fa7","","","","","","",""
"484743","","","game-claude-3-bureaucromancer","plugin-game-iframe","11","1714976","0.0-11.0","61164e823465955346dc1827","6987c292780adf01bb926159","69a4faea93d249ec80034fa7","game-complete","end:loss","{""stage"":""end:loss"",""detail"":{""won"":false,""score"":null,""casesProcessed"":21}}","{""result"":""loss"",""score"":205,""casesProcessed"":21,""casesCorrect"":13,""casesMisfiled"":8,""bestStreak"":11,""dragonCorrect"":false}","null","[{""key"":"" "",""event"":""keyup"",""t"":122},{""key"":""d"",""event"":""keydown"",""t"":17385},{""key"":""d"",""event"":""keyup"",""t"":17495},{""key"":"" "",""event"":""keydown"",""t"":18261},{""key"":"" "",""event"":""keyup"",""t"":18370},{""key"":""a"",""event"":""keydown"",""t"":27746},{""key"":""a"",""event"":""keyup"",""t"":27940},{""key"":""d"",""event"":""keydown"",""t"":35181},{""key"":""d"",""event"":""keyup"",""t"":35319},{""key"":""a"",""event"":""keydown"",""t"":40712},{""key"":""a"",""event"":""keyup"",""t"":40924},{""key"":""a"",""event"":""keydown"",""t"":45063},{""key"":""a"",""event"":""keyup"",""t"":45262},{""key"":""r"",""event"":""keydown"",""t"":56935},{""key"":""r"",""event"":""keyup"",""t"":57082},{""key"":""a"",""event"":""keydown"",""t"":61218},{""key"":""a"",""event"":""keyup"",""t"":61411},{""key"":""r"",""event"":""keydown"",""t"":62157},{""key"":""r"",""event"":""keyup"",""t"":62322},{""key"":""r"",""event"":""keydown"",""t"":66625},{""key"":""r"",""event"":""keyup"",""t"":66783},{""key"":""r"",""event"":""keydown"",""t"":72428},{""key"":""r"",""event"":""keyup"",""t"":72592},{""key"":""a"",""event"":""keydown"",""t"":77584},{""key"":""a"",""event"":""keyup"",""t"":77766},{""key"":""d"",""event"":""keydown"",""t"":79102},{""key"":""d"",""event"":""keyup"",""t"":79217},{""key"":""a"",""event"":""keydown"",""t"":89193},{""key"":""a"",""event"":""keyup"",""t"":89398},{""key"":""d"",""event"":""keydown"",""t"":91969},{""key"":""d"",""event"":""keyup"",""t"":92089},{""key"":""r"",""event"":""keydown"",""t"":92839},{""key"":""r"",""event"":""keyup"",""t"":93039},{""key"":""d"",""event"":""keydown"",""t"":95598},{""key"":""d"",""event"":""keyup"",""t"":95699},{""key"":""a"",""event"":""keydown"",""t"":97920},{""key"":""a"",""event"":""keyup"",""t"":98125},{""key"":""d"",""event"":""keydown"",""t"":101405},{""key"":""d"",""event"":""keyup"",""t"":101516},{""key"":""a"",""event"":""keydown"",""t"":107270},{""key"":""a"",""event"":""keyup"",""t"":107458},{""key"":""a"",""event"":""keydown"",""t"":120865},{""key"":""a"",""event"":""keyup"",""t"":121093},{""key"":""d"",""event"":""keydown"",""t"":123514},{""key"":""d"",""event"":""keyup"",""t"":123634},{""key"":"" "",""event"":""keydown"",""t"":130322},{""key"":"" "",""event"":""keyup"",""t"":130525},{""key"":""a"",""event"":""keydown"",""t"":139587},{""key"":""a"",""event"":""keyup"",""t"":139762},{""key"":""a"",""event"":""keydown"",""t"":143706},{""key"":""a"",""event"":""keyup"",""t"":143913},{""key"":""a"",""event"":""keydown"",""t"":147843},{""key"":""a"",""event"":""keyup"",""t"":148065},{""key"":""a"",""event"":""keydown"",""t"":151542},{""key"":""a"",""event"":""keyup"",""t"":151751},{""key"":""e"",""event"":""keydown"",""t"":163189},{""key"":""e"",""event"":""keyup"",""t"":163346},{""key"":""r"",""event"":""keydown"",""t"":164930},{""key"":""r"",""event"":""keyup"",""t"":165110},{""key"":""a"",""event"":""keydown"",""t"":170439},{""key"":""a"",""event"":""keyup"",""t"":170625},{""key"":""a"",""event"":""keydown"",""t"":175558},{""key"":""a"",""event"":""keyup"",""t"":175766},{""key"":""r"",""event"":""keydown"",""t"":179583},{""key"":""r"",""event"":""keyup"",""t"":179738},{""key"":""r"",""event"":""keydown"",""t"":182478},{""key"":""r"",""event"":""keyup"",""t"":182631},{""key"":""a"",""event"":""keydown"",""t"":194274},{""key"":""a"",""event"":""keyup"",""t"":194513},{""key"":""a"",""event"":""keydown"",""t"":202406},{""key"":""a"",""event"":""keyup"",""t"":202604},{""key"":""r"",""event"":""keydown"",""t"":202939},{""key"":""r"",""event"":""keyup"",""t"":203105},{""key"":""a"",""event"":""keydown"",""t"":205415},{""key"":""a"",""event"":""keyup"",""t"":205621},{""key"":"" "",""event"":""keydown"",""t"":211237},{""key"":"" "",""event"":""keyup"",""t"":211438},{""key"":""a"",""event"":""keydown"",""t"":219217},{""key"":""a"",""event"":""keyup"",""t"":219396},{""key"":""a"",""event"":""keydown"",""t"":223278},{""key"":""a"",""event"":""keyup"",""t"":223477},{""key"":""a"",""event"":""keydown"",""t"":230418},{""key"":""a"",""event"":""keyup"",""t"":230626},{""key"":""a"",""event"":""keydown"",""t"":233740},{""key"":""a"",""event"":""keyup"",""t"":233958},{""key"":""a"",""event"":""keydown"",""t"":246911},{""key"":""a"",""event"":""keyup"",""t"":247093},{""key"":""r"",""event"":""keydown"",""t"":254044},{""key"":""r"",""event"":""keyup"",""t"":254193},{""key"":""a"",""event"":""keydown"",""t"":257621},{""key"":""a"",""event"":""keyup"",""t"":257842},{""key"":""a"",""event"":""keydown"",""t"":261893},{""key"":""a"",""event"":""keyup"",""t"":262123},{""key"":""r"",""event"":""keydown"",""t"":268693},{""key"":""r"",""event"":""keyup"",""t"":268843},{""key"":""a"",""event"":""keydown"",""t"":283311},{""key"":""a"",""event"":""keyup"",""t"":283526},{""key"":""r"",""event"":""keydown"",""t"":291968},{""key"":""r"",""event"":""keyup"",""t"":292121},{""key"":""a"",""event"":""keydown"",""t"":296413},{""key"":""a"",""event"":""keyup"",""t"":296621},{""key"":""a"",""event"":""keydown"",""t"":300183},{""key"":""a"",""event"":""keyup"",""t"":300378},{""key"":""r"",""event"":""keydown"",""t"":309837},{""key"":""r"",""event"":""keyup"",""t"":309996},{""key"":""d"",""event"":""keydown"",""t"":312846},{""key"":""d"",""event"":""keyup"",""t"":312965},{""key"":""a"",""event"":""keydown"",""t"":323322},{""key"":""a"",""event"":""keyup"",""t"":323504},{""key"":""a"",""event"":""keydown"",""t"":328308},{""key"":""a"",""event"":""keyup"",""t"":328500},{""key"":""a"",""event"":""keydown"",""t"":331857},{""key"":""a"",""event"":""keyup"",""t"":332057},{""key"":""d"",""event"":""keydown"",""t"":338842},{""key"":""d"",""event"":""keyup"",""t"":338962},{""key"":""a"",""event"":""keydown"",""t"":343354},{""key"":""a"",""event"":""keyup"",""t"":343555},{""key"":""d"",""event"":""keydown"",""t"":348947},{""key"":""d"",""event"":""keyup"",""t"":349075},{""key"":""a"",""event"":""keydown"",""t"":365701},{""key"":""a"",""event"":""keyup"",""t"":365930},{""key"":"" "",""event"":""keydown"",""t"":370879},{""key"":"" "",""event"":""keyup"",""t"":371053},{""key"":""Enter"",""event"":""keydown"",""t"":375276},{""key"":""Enter"",""event"":""keyup"",""t"":375407},{""key"":""a"",""event"":""keydown"",""t"":377361},{""key"":""a"",""event"":""keyup"",""t"":377527},{""key"":""a"",""event"":""keydown"",""t"":379467},{""key"":""a"",""event"":""keyup"",""t"":379633},{""key"":""a"",""event"":""keydown"",""t"":381435},{""key"":""a"",""event"":""keyup"",""t"":381575},{""key"":""a"",""event"":""keydown"",""t"":383450},{""key"":""a"",""event"":""keyup"",""t"":383597},{""key"":""e"",""event"":""keydown"",""t"":395279},{""key"":""e"",""event"":""keyup"",""t"":395445},{""key"":""r"",""event"":""keydown"",""t"":396587},{""key"":""r"",""event"":""keyup"",""t"":396745},{""key"":""a"",""event"":""keydown"",""t"":398831},{""key"":""a"",""event"":""keyup"",""t"":399039},{""key"":""r"",""event"":""keydown"",""t"":401225},{""key"":""r"",""event"":""keyup"",""t"":401371},{""key"":""r"",""event"":""keydown"",""t"":403380},{""key"":""r"",""event"":""keyup"",""t"":403543},{""key"":""r"",""event"":""keydown"",""t"":405445},{""key"":""r"",""event"":""keyup"",""t"":405609},{""key"":""a"",""event"":""keydown"",""t"":415978},{""key"":""a"",""event"":""keyup"",""t"":416162},{""key"":""r"",""event"":""keydown"",""t"":420100},{""key"":""r"",""event"":""keyup"",""t"":420260},{""key"":""d"",""event"":""keydown"",""t"":425568},{""key"":""d"",""event"":""keyup"",""t"":425683},{""key"":""r"",""event"":""keydown"",""t"":428839},{""key"":""r"",""event"":""keyup"",""t"":428991},{""key"":""r"",""event"":""keydown"",""t"":433014},{""key"":""r"",""event"":""keyup"",""t"":433164},{""key"":""d"",""event"":""keydown"",""t"":433560},{""key"":""d"",""event"":""keyup"",""t"":433684},{""key"":""a"",""event"":""keydown"",""t"":440773},{""key"":""a"",""event"":""keyup"",""t"":440970},{""key"":""d"",""event"":""keydown"",""t"":454840},{""key"":""d"",""event"":""keyup"",""t"":454929},{""key"":""d"",""event"":""keydown"",""t"":463209},{""key"":""d"",""event"":""keyup"",""t"":463346},{""key"":""a"",""event"":""keydown"",""t"":466569},{""key"":""a"",""event"":""keyup"",""t"":466739},{""key"":""a"",""event"":""keydown"",""t"":468715},{""key"":""a"",""event"":""keyup"",""t"":468933},{""key"":""a"",""event"":""keydown"",""t"":472436},{""key"":""a"",""event"":""keyup"",""t"":472605},{""key"":""a"",""event"":""keydown"",""t"":477296},{""key"":""a"",""event"":""keyup"",""t"":477490},{""key"":""Enter"",""event"":""keydown"",""t"":484738}]","[]"
"141441","","{""creativity-rating"":5,""creativity-free-response"":""kinda fast paced but very fun\nthe game is creative and cool"",""originality-rating"":5,""originality-free-response"":""the conditonal setting was fun the ideas changing and needing to read the updates as well\n"",""effectiveness-rating"":4,""effectiveness-free-response"":""the timer was to fast but all else it was fun"",""attention-check"":3,""authenticity-rating"":5,""intentionality-rating"":5,""authenticity-intentionality-free-response"":""could need some working in terms of reading speedi g but the concept from the basic stand view is great ""}","evaluation-claude-3-bureaucromancer","survey","12","1856463","0.0-12.0","61164e823465955346dc1827","6987c292780adf01bb926159","69a4faea93d249ec80034fa7","","","","","","",""
"5343","","{""concept-creativity-rating"":5,""concept-implementation-rating"":5,""question1"":null}","concept-claude-3-bureaucromancer","survey","13","1861827","0.0-13.0","61164e823465955346dc1827","6987c292780adf01bb926159","69a4faea93d249ec80034fa7","","","","","","",""
"1357","You have completed all of the games!<br><br>Press any key to proceed to some final questions before returning to Prolific."," ","pre-baseline-questions","html-keyboard-response","14","1863186","0.0-14.0","61164e823465955346dc1827","6987c292780adf01bb926159","69a4faea93d249ec80034fa7","","","","","","",""
"12895","","{""baseline_originality_rating"":5,""baseline_effectiveness_rating"":5,""baseline_authenticity_rating"":5,""baseline_intentionality_rating"":5}","baseline-questions-rating","survey","15","1876101","0.0-15.0","61164e823465955346dc1827","6987c292780adf01bb926159","69a4faea93d249ec80034fa7","","","","","","",""
"27166","","{""ai_blind_question"":""nope i had a feeling it was AI from scratch all because of the basic assets""}","ai-blind-question","survey","16","1903280","0.0-16.0","61164e823465955346dc1827","6987c292780adf01bb926159","69a4faea93d249ec80034fa7","","","","","","",""
"5117","
        <p> You have completed the experiment! Press any key to save your data and get redirected back to Prolific. <strong>Please do not close the page until you have been redirected to Prolific.</strong> <p>
      "," ","goodbye","html-keyboard-response","17","1908398","0.0-17.0","61164e823465955346dc1827","6987c292780adf01bb926159","69a4faea93d249ec80034fa7","","","","","","",""
