"rt","stimulus","response","phase","trial_type","trial_index","time_elapsed","internal_node_id","prolific_subject_id","study_id","session_id","exit_reason","exit_stage","exit_progress","game_data","emergency_text","keystrokes","mouse_events"
"284786","Welcome!<br><br>In this study, you will play three short video games that were generated by Artificial Intelligence (AI) and complete a short survey after each game.<br><br>Please make sure you are in a quiet environment where you can focus for the duration of the study. Some games may use sound, so please ensure that your device's volume is not muted.<br><br>Press any key to begin."," ","welcome-message","html-keyboard-response","0","284808","0.0-0.0","67be6a20a52466ed9267d895","6987c292780adf01bb926159","69a63959a4e43a947333f971","","","","","","",""
"13616","","{""commitment-check"":[""yes""]}","commitment-check","survey","1","298534","0.0-1.0","67be6a20a52466ed9267d895","6987c292780adf01bb926159","69a63959a4e43a947333f971","","","","","","",""
"60109","Press any key to proceed to the first video game. Should you encounter a game-breaking bug, please report the issue in the Menu tab to the right of the screen."," ","pre-game-one-message","html-keyboard-response","2","358645","0.0-2.0","67be6a20a52466ed9267d895","6987c292780adf01bb926159","69a63959a4e43a947333f971","","","","","","",""
"387075","","","game-gemini-4-substratum","plugin-game-iframe","3","745764","0.0-3.0","67be6a20a52466ed9267d895","6987c292780adf01bb926159","69a63959a4e43a947333f971","game-complete","level 4/3","{""stage"":""level 4/3"",""detail"":{""levelIndex"":3,""levelNum"":4,""totalLevels"":3,""progressPct"":null,""heroX"":850,""heroMoving"":true,""isGameOver"":true}}","{""result"":""win"",""levelsCompleted"":3}","null","[{""key"":"" "",""event"":""keyup"",""t"":40},{""key"":""AudioVolumeDown"",""event"":""keydown"",""t"":2606},{""key"":""AudioVolumeDown"",""event"":""keyup"",""t"":2608},{""key"":""AudioVolumeDown"",""event"":""keydown"",""t"":2608},{""key"":""AudioVolumeDown"",""event"":""keyup"",""t"":2608},{""key"":""AudioVolumeDown"",""event"":""keydown"",""t"":2609},{""key"":""AudioVolumeDown"",""event"":""keyup"",""t"":2609},{""key"":""AudioVolumeDown"",""event"":""keydown"",""t"":2609},{""key"":""AudioVolumeDown"",""event"":""keyup"",""t"":2609},{""key"":""AudioVolumeDown"",""event"":""keydown"",""t"":2609},{""key"":""AudioVolumeDown"",""event"":""keydown"",""t"":3030},{""key"":""AudioVolumeDown"",""event"":""keydown"",""t"":3062},{""key"":""AudioVolumeDown"",""event"":""keydown"",""t"":3090},{""key"":""AudioVolumeDown"",""event"":""keydown"",""t"":3120},{""key"":""AudioVolumeDown"",""event"":""keydown"",""t"":3153},{""key"":""AudioVolumeDown"",""event"":""keydown"",""t"":3184},{""key"":""AudioVolumeDown"",""event"":""keydown"",""t"":3213},{""key"":""AudioVolumeDown"",""event"":""keydown"",""t"":3247},{""key"":""AudioVolumeDown"",""event"":""keydown"",""t"":3272},{""key"":""AudioVolumeDown"",""event"":""keydown"",""t"":3300},{""key"":""AudioVolumeDown"",""event"":""keydown"",""t"":3332},{""key"":""AudioVolumeDown"",""event"":""keydown"",""t"":3362},{""key"":""AudioVolumeDown"",""event"":""keydown"",""t"":3393},{""key"":""AudioVolumeDown"",""event"":""keydown"",""t"":3419},{""key"":""AudioVolumeDown"",""event"":""keydown"",""t"":3450},{""key"":""AudioVolumeDown"",""event"":""keydown"",""t"":3481},{""key"":""AudioVolumeDown"",""event"":""keyup"",""t"":3503},{""key"":""AudioVolumeDown"",""event"":""keydown"",""t"":4053},{""key"":""AudioVolumeDown"",""event"":""keyup"",""t"":4132},{""key"":""AudioVolumeDown"",""event"":""keydown"",""t"":4251},{""key"":""AudioVolumeDown"",""event"":""keyup"",""t"":4333},{""key"":""AudioVolumeDown"",""event"":""keydown"",""t"":4662},{""key"":""AudioVolumeDown"",""event"":""keyup"",""t"":4748},{""key"":""AudioVolumeDown"",""event"":""keydown"",""t"":6235},{""key"":""AudioVolumeDown"",""event"":""keyup"",""t"":6347},{""key"":""AudioVolumeDown"",""event"":""keydown"",""t"":6467},{""key"":""AudioVolumeDown"",""event"":""keyup"",""t"":6565},{""key"":""AudioVolumeDown"",""event"":""keydown"",""t"":6647},{""key"":""AudioVolumeDown"",""event"":""keyup"",""t"":6746},{""key"":"" "",""event"":""keydown"",""t"":11213},{""key"":"" "",""event"":""keyup"",""t"":11332},{""key"":"" "",""event"":""keydown"",""t"":18445},{""key"":"" "",""event"":""keyup"",""t"":18621},{""key"":""CapsLock"",""event"":""keydown"",""t"":288595},{""key"":""CapsLock"",""event"":""keyup"",""t"":288678},{""key"":""T"",""event"":""keydown"",""t"":288682},{""key"":""T"",""event"":""keyup"",""t"":288768},{""key"":""CapsLock"",""event"":""keydown"",""t"":288774},{""key"":""CapsLock"",""event"":""keyup"",""t"":288858},{""key"":""h"",""event"":""keydown"",""t"":289191},{""key"":""h"",""event"":""keyup"",""t"":289290},{""key"":""e"",""event"":""keydown"",""t"":289307},{""key"":""e"",""event"":""keyup"",""t"":289408},{""key"":"" "",""event"":""keydown"",""t"":289462},{""key"":"" "",""event"":""keyup"",""t"":289566},{""key"":""Enter"",""event"":""keydown"",""t"":387053}]","[]"
"216538","","{""creativity-rating"":4,""creativity-free-response"":""The second and third level felt very challenging and required a lot of trial and error and strategy. The first level felt basic and similar to other games but the second and third level and the ability to control the platforms for the cube were unique and thought provoking."",""originality-rating"":3,""originality-free-response"":""The idea that I am avoiding spikes and moving an object with my mouse did not really feel very original. However, the fact that I could move multiple platforms by clicking them and having to be precise with my movements surprised me as that part of the mechanics was original."",""effectiveness-rating"":1,""effectiveness-free-response"":""I found the second level to be very frustrating as there was such a little platform that you had to keep steady. I also found the instructions a bit unclear in terms of their language which only made the game more confusing to understand."",""authenticity-rating"":4,""attention-check"":3,""intentionality-rating"":4,""authenticity-intentionality-free-response"":""It did feel like the game was designed to be difficult. I also think the idea behind it was original and had potential. However, it was a bit too challenging so I think the developer had good intentions but did not necessarily execute fully.""}","evaluation-gemini-4-substratum","survey","4","962423","0.0-4.0","67be6a20a52466ed9267d895","6987c292780adf01bb926159","69a63959a4e43a947333f971","","","","","","",""
"15038","","{""concept-creativity-rating"":4,""concept-implementation-rating"":4,""question1"":null}","concept-gemini-4-substratum","survey","5","977509","0.0-5.0","67be6a20a52466ed9267d895","6987c292780adf01bb926159","69a63959a4e43a947333f971","","","","","","",""
"2361","You have completed your evaluation of the first video game.<br><br>Press any key to proceed to the second game."," ","pre-game-two-message","html-keyboard-response","6","979879","0.0-6.0","67be6a20a52466ed9267d895","6987c292780adf01bb926159","69a63959a4e43a947333f971","","","","","","",""
"210196","","","game-chat-6-tidepainter","plugin-game-iframe","7","1190121","0.0-7.0","67be6a20a52466ed9267d895","6987c292780adf01bb926159","69a63959a4e43a947333f971","emergency-exit","wave 1/12 - waiting-for-first-carve","{""stage"":""wave 1/12 - waiting-for-first-carve"",""detail"":{""waveIndex"":1,""phase"":""Calm"",""phaseTimer"":4.8,""shellsFilled"":0,""waitingForFirstCarve"":true}}","null","The instructions are not clear and are disappearing too quickly. Nothing I try is working.","[{""key"":"" "",""event"":""keyup"",""t"":49},{""key"":""CapsLock"",""event"":""keydown"",""t"":197003},{""key"":""CapsLock"",""event"":""keyup"",""t"":197089},{""key"":""T"",""event"":""keydown"",""t"":197093},{""key"":""T"",""event"":""keyup"",""t"":197153},{""key"":""CapsLock"",""event"":""keydown"",""t"":197157},{""key"":""CapsLock"",""event"":""keyup"",""t"":197243},{""key"":""h"",""event"":""keydown"",""t"":197271},{""key"":""h"",""event"":""keyup"",""t"":197317},{""key"":""e"",""event"":""keydown"",""t"":197339},{""key"":""e"",""event"":""keyup"",""t"":197429},{""key"":"" "",""event"":""keydown"",""t"":197435},{""key"":"" "",""event"":""keyup"",""t"":197508},{""key"":""i"",""event"":""keydown"",""t"":197583},{""key"":""n"",""event"":""keydown"",""t"":197667},{""key"":""i"",""event"":""keyup"",""t"":197718},{""key"":""s"",""event"":""keydown"",""t"":197751},{""key"":""n"",""event"":""keyup"",""t"":197783},{""key"":""s"",""event"":""keyup"",""t"":197842},{""key"":""t"",""event"":""keydown"",""t"":197886},{""key"":""t"",""event"":""keyup"",""t"":197929},{""key"":""r"",""event"":""keydown"",""t"":197955},{""key"":""r"",""event"":""keyup"",""t"":198017},{""key"":""u"",""event"":""keydown"",""t"":198056},{""key"":""u"",""event"":""keyup"",""t"":198108},{""key"":""c"",""event"":""keydown"",""t"":198134},{""key"":""c"",""event"":""keyup"",""t"":198186},{""key"":""t"",""event"":""keydown"",""t"":198304},{""key"":""t"",""event"":""keyup"",""t"":198356},{""key"":""i"",""event"":""keydown"",""t"":198401},{""key"":""o"",""event"":""keydown"",""t"":198468},{""key"":""i"",""event"":""keyup"",""t"":198489},{""key"":""n"",""event"":""keydown"",""t"":198584},{""key"":""o"",""event"":""keyup"",""t"":198642},{""key"":""s"",""event"":""keydown"",""t"":198652},{""key"":""n"",""event"":""keyup"",""t"":198655},{""key"":""s"",""event"":""keyup"",""t"":198717},{""key"":"" "",""event"":""keydown"",""t"":198757},{""key"":"" "",""event"":""keyup"",""t"":198838},{""key"":""a"",""event"":""keydown"",""t"":198842},{""key"":""a"",""event"":""keyup"",""t"":198909},{""key"":""r"",""event"":""keydown"",""t"":199019},{""key"":""r"",""event"":""keyup"",""t"":199070},{""key"":""e"",""event"":""keydown"",""t"":199152},{""key"":"" "",""event"":""keydown"",""t"":199220},{""key"":""e"",""event"":""keyup"",""t"":199239},{""key"":"" "",""event"":""keyup"",""t"":199267},{""key"":""n"",""event"":""keydown"",""t"":199387},{""key"":""o"",""event"":""keydown"",""t"":199442},{""key"":""n"",""event"":""keyup"",""t"":199470},{""key"":""t"",""event"":""keydown"",""t"":199485},{""key"":""o"",""event"":""keyup"",""t"":199518},{""key"":""t"",""event"":""keyup"",""t"":199534},{""key"":"" "",""event"":""keydown"",""t"":199585},{""key"":"" "",""event"":""keyup"",""t"":199668},{""key"":""c"",""event"":""keydown"",""t"":199688},{""key"":""c"",""event"":""keyup"",""t"":199759},{""key"":""l"",""event"":""keydown"",""t"":199785},{""key"":""l"",""event"":""keyup"",""t"":199851},{""key"":""e"",""event"":""keydown"",""t"":199857},{""key"":""e"",""event"":""keyup"",""t"":199921},{""key"":""a"",""event"":""keydown"",""t"":200054},{""key"":""a"",""event"":""keyup"",""t"":200102},{""key"":""r"",""event"":""keydown"",""t"":200200},{""key"":""r"",""event"":""keyup"",""t"":200266},{""key"":"" "",""event"":""keydown"",""t"":200283},{""key"":"" "",""event"":""keyup"",""t"":200366},{""key"":""a"",""event"":""keydown"",""t"":200404},{""key"":""a"",""event"":""keyup"",""t"":200459},{""key"":""n"",""event"":""keydown"",""t"":200471},{""key"":""n"",""event"":""keyup"",""t"":200532},{""key"":""d"",""event"":""keydown"",""t"":200555},{""key"":""d"",""event"":""keyup"",""t"":200618},{""key"":"" "",""event"":""keydown"",""t"":200636},{""key"":"" "",""event"":""keyup"",""t"":200716},{""key"":""a"",""event"":""keydown"",""t"":200734},{""key"":""a"",""event"":""keyup"",""t"":200816},{""key"":""r"",""event"":""keydown"",""t"":200949},{""key"":""r"",""event"":""keyup"",""t"":200988},{""key"":""e"",""event"":""keydown"",""t"":201075},{""key"":""e"",""event"":""keyup"",""t"":201167},{""key"":"" "",""event"":""keydown"",""t"":201185},{""key"":"" "",""event"":""keyup"",""t"":201271},{""key"":""d"",""event"":""keydown"",""t"":201704},{""key"":""i"",""event"":""keydown"",""t"":201800},{""key"":""d"",""event"":""keyup"",""t"":201806},{""key"":""i"",""event"":""keyup"",""t"":201886},{""key"":""s"",""event"":""keydown"",""t"":201968},{""key"":""s"",""event"":""keyup"",""t"":202134},{""key"":""a"",""event"":""keydown"",""t"":202853},{""key"":""a"",""event"":""keyup"",""t"":202935},{""key"":""p"",""event"":""keydown"",""t"":202972},{""key"":""p"",""event"":""keyup"",""t"":203034},{""key"":""p"",""event"":""keydown"",""t"":203086},{""key"":""e"",""event"":""keydown"",""t"":203123},{""key"":""p"",""event"":""keyup"",""t"":203151},{""key"":""e"",""event"":""keyup"",""t"":203185},{""key"":""a"",""event"":""keydown"",""t"":203315},{""key"":""a"",""event"":""keyup"",""t"":203355},{""key"":""r"",""event"":""keydown"",""t"":203477},{""key"":""r"",""event"":""keyup"",""t"":203558},{""key"":""i"",""event"":""keydown"",""t"":203568},{""key"":""n"",""event"":""keydown"",""t"":203617},{""key"":""i"",""event"":""keyup"",""t"":203660},{""key"":""g"",""event"":""keydown"",""t"":203671},{""key"":""n"",""event"":""keyup"",""t"":203691},{""key"":""g"",""event"":""keyup"",""t"":203733},{""key"":"" "",""event"":""keydown"",""t"":203770},{""key"":""t"",""event"":""keydown"",""t"":203833},{""key"":"" "",""event"":""keyup"",""t"":203840},{""key"":""t"",""event"":""keyup"",""t"":203883},{""key"":""o"",""event"":""keydown"",""t"":203939},{""key"":""o"",""event"":""keyup"",""t"":203987},{""key"":""o"",""event"":""keydown"",""t"":204068},{""key"":""o"",""event"":""keyup"",""t"":204140},{""key"":"" "",""event"":""keydown"",""t"":204211},{""key"":"" "",""event"":""keyup"",""t"":204282},{""key"":""q"",""event"":""keydown"",""t"":204324},{""key"":""q"",""event"":""keyup"",""t"":204400},{""key"":""u"",""event"":""keydown"",""t"":204433},{""key"":""i"",""event"":""keydown"",""t"":204518},{""key"":""u"",""event"":""keyup"",""t"":204536},{""key"":""c"",""event"":""keydown"",""t"":204566},{""key"":""i"",""event"":""keyup"",""t"":204600},{""key"":""c"",""event"":""keyup"",""t"":204639},{""key"":""k"",""event"":""keydown"",""t"":204708},{""key"":""k"",""event"":""keyup"",""t"":204754},{""key"":""l"",""event"":""keydown"",""t"":205020},{""key"":""l"",""event"":""keyup"",""t"":205101},{""key"":""y"",""event"":""keydown"",""t"":205135},{""key"":""y"",""event"":""keyup"",""t"":205221},{""key"":""."",""event"":""keydown"",""t"":205406},{""key"":""."",""event"":""keyup"",""t"":205482},{""key"":"" "",""event"":""keydown"",""t"":205615},{""key"":"" "",""event"":""keyup"",""t"":205699},{""key"":""CapsLock"",""event"":""keydown"",""t"":206265},{""key"":""N"",""event"":""keydown"",""t"":206304},{""key"":""CapsLock"",""event"":""keyup"",""t"":206332},{""key"":""N"",""event"":""keyup"",""t"":206373},{""key"":""CapsLock"",""event"":""keydown"",""t"":206433},{""key"":""o"",""event"":""keydown"",""t"":206482},{""key"":""CapsLock"",""event"":""keyup"",""t"":206485},{""key"":""o"",""event"":""keyup"",""t"":206556},{""key"":""t"",""event"":""keydown"",""t"":206634},{""key"":""t"",""event"":""keyup"",""t"":206692},{""key"":""h"",""event"":""keydown"",""t"":206700},{""key"":""i"",""event"":""keydown"",""t"":206753},{""key"":""h"",""event"":""keyup"",""t"":206772},{""key"":""n"",""event"":""keydown"",""t"":206867},{""key"":""i"",""event"":""keyup"",""t"":206915},{""key"":""g"",""event"":""keydown"",""t"":206922},{""key"":""n"",""event"":""keyup"",""t"":206937},{""key"":""g"",""event"":""keyup"",""t"":206985},{""key"":"" "",""event"":""keydown"",""t"":207033},{""key"":"" "",""event"":""keyup"",""t"":207105},{""key"":""CapsLock"",""event"":""keydown"",""t"":207109},{""key"":""CapsLock"",""event"":""keyup"",""t"":207177},{""key"":""I"",""event"":""keydown"",""t"":207201},{""key"":""I"",""event"":""keyup"",""t"":207256},{""key"":""CapsLock"",""event"":""keydown"",""t"":207265},{""key"":""CapsLock"",""event"":""keyup"",""t"":207337},{""key"":"" "",""event"":""keydown"",""t"":207348},{""key"":"" "",""event"":""keyup"",""t"":207433},{""key"":""t"",""event"":""keydown"",""t"":207456},{""key"":""t"",""event"":""keyup"",""t"":207527},{""key"":""r"",""event"":""keydown"",""t"":207607},{""key"":""r"",""event"":""keyup"",""t"":207691},{""key"":""y"",""event"":""keydown"",""t"":207699},{""key"":""y"",""event"":""keyup"",""t"":207749},{""key"":"" "",""event"":""keydown"",""t"":207857},{""key"":"" "",""event"":""keyup"",""t"":207920},{""key"":""i"",""event"":""keydown"",""t"":208008},{""key"":""s"",""event"":""keydown"",""t"":208049},{""key"":""i"",""event"":""keyup"",""t"":208076},{""key"":""s"",""event"":""keyup"",""t"":208132},{""key"":"" "",""event"":""keydown"",""t"":208168},{""key"":"" "",""event"":""keyup"",""t"":208232},{""key"":""w"",""event"":""keydown"",""t"":208281},{""key"":""w"",""event"":""keyup"",""t"":208306},{""key"":""o"",""event"":""keydown"",""t"":208355},{""key"":""o"",""event"":""keyup"",""t"":208404},{""key"":""r"",""event"":""keydown"",""t"":208419},{""key"":""r"",""event"":""keyup"",""t"":208472},{""key"":""k"",""event"":""keydown"",""t"":208507},{""key"":""k"",""event"":""keyup"",""t"":208568},{""key"":""i"",""event"":""keydown"",""t"":208654},{""key"":""n"",""event"":""keydown"",""t"":208716},{""key"":""i"",""event"":""keyup"",""t"":208778},{""key"":""g"",""event"":""keydown"",""t"":208794},{""key"":""n"",""event"":""keyup"",""t"":208834},{""key"":""g"",""event"":""keyup"",""t"":208868},{""key"":""."",""event"":""keydown"",""t"":208946},{""key"":""."",""event"":""keyup"",""t"":209001}]","[]"
"182616","","{""creativity-rating"":5,""creativity-free-response"":""The game was very creative but so confusing. The fact that you could mix colours and draw a path connecting different components was something I have never seen before."",""originality-rating"":4,""originality-free-response"":""The ability to drop a mixer and draw paths from colours felt original. The narrative and theme however felt unoriginal and a bit boring."",""effectiveness-rating"":1,""effectiveness-free-response"":""This game was so confusing. The instructions were not clear, nothing I seem to do worked and made any different in the game. It felt frustrating because I thought I was working through the game properly but did not seem to be progressing no matter what I tried. Also, the instructions were not on the screen for long enough."",""authenticity-rating"":3,""attention-check"":3,""intentionality-rating"":1,""authenticity-intentionality-free-response"":""I felt like the developer intended for this game to run more smoothly and to made more sense than it did. I feel like they wanted the instructions to be more clear but they were not. It feels low effort and I also feel like they did not intend to make the game so confusing/hard.""}","evaluation-chat-6-tidepainter","survey","8","1372814","0.0-8.0","67be6a20a52466ed9267d895","6987c292780adf01bb926159","69a63959a4e43a947333f971","","","","","","",""
"18930","","{""concept-creativity-rating"":5,""concept-implementation-rating"":1,""question1"":null}","concept-chat-6-tidepainter","survey","9","1391792","0.0-9.0","67be6a20a52466ed9267d895","6987c292780adf01bb926159","69a63959a4e43a947333f971","","","","","","",""
"1744","You have completed your evaluation of the second video game.<br><br>Press any key to proceed to the final game."," ","pre-game-three-message","html-keyboard-response","10","1393539","0.0-10.0","67be6a20a52466ed9267d895","6987c292780adf01bb926159","69a63959a4e43a947333f971","","","","","","",""
"97480","","","game-gemini-5-rename","plugin-game-iframe","11","1491053","0.0-11.0","67be6a20a52466ed9267d895","6987c292780adf01bb926159","69a63959a4e43a947333f971","emergency-exit","exit-distance 257","{""stage"":""exit-distance 257"",""detail"":{""wallZipExtension"":"".zip"",""hazardExtension"":"".fire"",""playerBurning"":false,""isTyping"":false,""distanceToExit"":257}}","null","Walls are too tall to jump over and make it to the end","[{""key"":"" "",""event"":""keyup"",""t"":103},{""key"":""ArrowRight"",""event"":""keydown"",""t"":9224},{""key"":""ArrowRight"",""event"":""keyup"",""t"":9625},{""key"":""ArrowRight"",""event"":""keydown"",""t"":10114},{""key"":"" "",""event"":""keydown"",""t"":10304},{""key"":"" "",""event"":""keyup"",""t"":10783},{""key"":""ArrowRight"",""event"":""keyup"",""t"":10864},{""key"":""ArrowLeft"",""event"":""keydown"",""t"":11168},{""key"":""ArrowLeft"",""event"":""keydown"",""t"":11666},{""key"":""ArrowLeft"",""event"":""keydown"",""t"":11695},{""key"":""ArrowLeft"",""event"":""keydown"",""t"":11725},{""key"":""ArrowLeft"",""event"":""keydown"",""t"":11756},{""key"":""ArrowLeft"",""event"":""keydown"",""t"":11787},{""key"":""ArrowLeft"",""event"":""keyup"",""t"":11794},{""key"":""ArrowRight"",""event"":""keydown"",""t"":13982},{""key"":""ArrowRight"",""event"":""keydown"",""t"":14479},{""key"":""ArrowRight"",""event"":""keydown"",""t"":14509},{""key"":""ArrowUp"",""event"":""keydown"",""t"":14517},{""key"":""ArrowUp"",""event"":""keydown"",""t"":15018},{""key"":""ArrowUp"",""event"":""keydown"",""t"":15047},{""key"":""ArrowUp"",""event"":""keydown"",""t"":15077},{""key"":""ArrowUp"",""event"":""keydown"",""t"":15106},{""key"":""ArrowUp"",""event"":""keydown"",""t"":15137},{""key"":""ArrowUp"",""event"":""keydown"",""t"":15168},{""key"":""ArrowUp"",""event"":""keydown"",""t"":15197},{""key"":""ArrowUp"",""event"":""keyup"",""t"":15211},{""key"":""ArrowRight"",""event"":""keyup"",""t"":15352},{""key"":""CapsLock"",""event"":""keydown"",""t"":20368},{""key"":""CapsLock"",""event"":""keyup"",""t"":20478},{""key"":""F"",""event"":""keydown"",""t"":20509},{""key"":""F"",""event"":""keyup"",""t"":20544},{""key"":""CapsLock"",""event"":""keydown"",""t"":20572},{""key"":""CapsLock"",""event"":""keyup"",""t"":20671},{""key"":""i"",""event"":""keydown"",""t"":21018},{""key"":""i"",""event"":""keyup"",""t"":21097},{""key"":""r"",""event"":""keydown"",""t"":21126},{""key"":""r"",""event"":""keyup"",""t"":21203},{""key"":""e"",""event"":""keydown"",""t"":21308},{""key"":""e"",""event"":""keyup"",""t"":21385},{""key"":""Enter"",""event"":""keydown"",""t"":24085},{""key"":""Enter"",""event"":""keyup"",""t"":24150},{""key"":""ArrowRight"",""event"":""keydown"",""t"":26236},{""key"":""ArrowUp"",""event"":""keydown"",""t"":26370},{""key"":""ArrowUp"",""event"":""keydown"",""t"":26868},{""key"":""ArrowUp"",""event"":""keydown"",""t"":26900},{""key"":""ArrowUp"",""event"":""keydown"",""t"":26931},{""key"":""ArrowUp"",""event"":""keydown"",""t"":26960},{""key"":""ArrowUp"",""event"":""keydown"",""t"":26990},{""key"":""ArrowUp"",""event"":""keydown"",""t"":27020},{""key"":""ArrowUp"",""event"":""keydown"",""t"":27051},{""key"":""ArrowUp"",""event"":""keydown"",""t"":27082},{""key"":""ArrowUp"",""event"":""keydown"",""t"":27114},{""key"":""ArrowUp"",""event"":""keydown"",""t"":27142},{""key"":""ArrowUp"",""event"":""keydown"",""t"":27172},{""key"":""ArrowUp"",""event"":""keydown"",""t"":27203},{""key"":""ArrowUp"",""event"":""keydown"",""t"":27234},{""key"":""ArrowUp"",""event"":""keyup"",""t"":27251},{""key"":""ArrowUp"",""event"":""keydown"",""t"":27498},{""key"":""ArrowUp"",""event"":""keydown"",""t"":27999},{""key"":""ArrowUp"",""event"":""keydown"",""t"":28028},{""key"":""ArrowUp"",""event"":""keydown"",""t"":28057},{""key"":""ArrowUp"",""event"":""keydown"",""t"":28088},{""key"":""ArrowUp"",""event"":""keydown"",""t"":28120},{""key"":""ArrowUp"",""event"":""keydown"",""t"":28151},{""key"":""ArrowUp"",""event"":""keydown"",""t"":28182},{""key"":""ArrowUp"",""event"":""keydown"",""t"":28210},{""key"":""ArrowUp"",""event"":""keydown"",""t"":28241},{""key"":""ArrowUp"",""event"":""keydown"",""t"":28272},{""key"":""ArrowUp"",""event"":""keydown"",""t"":28302},{""key"":""ArrowUp"",""event"":""keydown"",""t"":28333},{""key"":""ArrowUp"",""event"":""keydown"",""t"":28363},{""key"":""ArrowUp"",""event"":""keydown"",""t"":28392},{""key"":""ArrowUp"",""event"":""keydown"",""t"":28422},{""key"":""ArrowUp"",""event"":""keydown"",""t"":28455},{""key"":""ArrowUp"",""event"":""keyup"",""t"":28464},{""key"":""ArrowRight"",""event"":""keyup"",""t"":28486},{""key"":""Backspace"",""event"":""keydown"",""t"":30286},{""key"":""Backspace"",""event"":""keyup"",""t"":30359},{""key"":""CapsLock"",""event"":""keydown"",""t"":31106},{""key"":""T"",""event"":""keydown"",""t"":31319},{""key"":""CapsLock"",""event"":""keyup"",""t"":31338},{""key"":""T"",""event"":""keyup"",""t"":31393},{""key"":""CapsLock"",""event"":""keydown"",""t"":31424},{""key"":""CapsLock"",""event"":""keyup"",""t"":31522},{""key"":""a"",""event"":""keydown"",""t"":31618},{""key"":""l"",""event"":""keydown"",""t"":31687},{""key"":""a"",""event"":""keyup"",""t"":31715},{""key"":""l"",""event"":""keyup"",""t"":31800},{""key"":""l"",""event"":""keydown"",""t"":31852},{""key"":""l"",""event"":""keyup"",""t"":31933},{""key"":"" "",""event"":""keydown"",""t"":32050},{""key"":"" "",""event"":""keyup"",""t"":32134},{""key"":""CapsLock"",""event"":""keydown"",""t"":32161},{""key"":""CapsLock"",""event"":""keyup"",""t"":32322},{""key"":""W"",""event"":""keydown"",""t"":32328},{""key"":""CapsLock"",""event"":""keydown"",""t"":32449},{""key"":""w"",""event"":""keyup"",""t"":32473},{""key"":""CapsLock"",""event"":""keyup"",""t"":32604},{""key"":""a"",""event"":""keydown"",""t"":32701},{""key"":""a"",""event"":""keyup"",""t"":32783},{""key"":""l"",""event"":""keydown"",""t"":32798},{""key"":""l"",""event"":""keyup"",""t"":32856},{""key"":""l"",""event"":""keydown"",""t"":32935},{""key"":""l"",""event"":""keyup"",""t"":33017},{""key"":"" "",""event"":""keydown"",""t"":35892},{""key"":"" "",""event"":""keyup"",""t"":35967},{""key"":"" "",""event"":""keydown"",""t"":36658},{""key"":"" "",""event"":""keyup"",""t"":36805},{""key"":""."",""event"":""keydown"",""t"":39072},{""key"":""."",""event"":""keyup"",""t"":39186},{""key"":""Backspace"",""event"":""keydown"",""t"":39941},{""key"":""Backspace"",""event"":""keyup"",""t"":40009},{""key"":""ArrowLeft"",""event"":""keydown"",""t"":40337},{""key"":""ArrowLeft"",""event"":""keyup"",""t"":40449},{""key"":""."",""event"":""keydown"",""t"":40556},{""key"":""."",""event"":""keyup"",""t"":40625},{""key"":""Backspace"",""event"":""keydown"",""t"":41757},{""key"":""Backspace"",""event"":""keyup"",""t"":41816},{""key"":""Backspace"",""event"":""keydown"",""t"":41883},{""key"":""Backspace"",""event"":""keyup"",""t"":41987},{""key"":""."",""event"":""keydown"",""t"":43096},{""key"":""."",""event"":""keyup"",""t"":43151},{""key"":""w"",""event"":""keydown"",""t"":43667},{""key"":""w"",""event"":""keyup"",""t"":43761},{""key"":""Enter"",""event"":""keydown"",""t"":47216},{""key"":""Enter"",""event"":""keyup"",""t"":47297},{""key"":""ArrowUp"",""event"":""keydown"",""t"":52614},{""key"":""ArrowUp"",""event"":""keyup"",""t"":53069},{""key"":""ArrowLeft"",""event"":""keydown"",""t"":53161},{""key"":""ArrowLeft"",""event"":""keyup"",""t"":53301},{""key"":""Enter"",""event"":""keydown"",""t"":53696},{""key"":""Enter"",""event"":""keyup"",""t"":53753},{""key"":""ArrowUp"",""event"":""keydown"",""t"":54216},{""key"":""ArrowLeft"",""event"":""keydown"",""t"":54669},{""key"":""ArrowLeft"",""event"":""keyup"",""t"":54781},{""key"":""ArrowUp"",""event"":""keyup"",""t"":54914},{""key"":""ArrowLeft"",""event"":""keydown"",""t"":54919},{""key"":""ArrowUp"",""event"":""keydown"",""t"":55044},{""key"":""ArrowLeft"",""event"":""keyup"",""t"":55071},{""key"":""ArrowRight"",""event"":""keydown"",""t"":55129},{""key"":""ArrowUp"",""event"":""keyup"",""t"":55300},{""key"":""ArrowUp"",""event"":""keydown"",""t"":55532},{""key"":""ArrowUp"",""event"":""keydown"",""t"":56031},{""key"":""ArrowUp"",""event"":""keydown"",""t"":56062},{""key"":""ArrowUp"",""event"":""keydown"",""t"":56094},{""key"":""ArrowUp"",""event"":""keydown"",""t"":56122},{""key"":""ArrowUp"",""event"":""keydown"",""t"":56152},{""key"":""ArrowUp"",""event"":""keydown"",""t"":56182},{""key"":""ArrowUp"",""event"":""keydown"",""t"":56213},{""key"":""ArrowUp"",""event"":""keydown"",""t"":56244},{""key"":""ArrowUp"",""event"":""keydown"",""t"":56272},{""key"":""ArrowUp"",""event"":""keydown"",""t"":56302},{""key"":""ArrowUp"",""event"":""keydown"",""t"":56332},{""key"":""ArrowUp"",""event"":""keydown"",""t"":56363},{""key"":""ArrowUp"",""event"":""keydown"",""t"":56396},{""key"":""ArrowUp"",""event"":""keydown"",""t"":56426},{""key"":""ArrowUp"",""event"":""keyup"",""t"":56451},{""key"":""ArrowUp"",""event"":""keydown"",""t"":56666},{""key"":"" "",""event"":""keydown"",""t"":56833},{""key"":"" "",""event"":""keyup"",""t"":57150},{""key"":""ArrowUp"",""event"":""keyup"",""t"":57414},{""key"":""ArrowDown"",""event"":""keydown"",""t"":57419},{""key"":""ArrowDown"",""event"":""keyup"",""t"":57514},{""key"":""ArrowDown"",""event"":""keydown"",""t"":57558},{""key"":""ArrowDown"",""event"":""keyup"",""t"":57691},{""key"":""ArrowDown"",""event"":""keydown"",""t"":57815},{""key"":""ArrowDown"",""event"":""keyup"",""t"":57963},{""key"":""ArrowRight"",""event"":""keyup"",""t"":58040},{""key"":""ArrowLeft"",""event"":""keydown"",""t"":58318},{""key"":""ArrowLeft"",""event"":""keyup"",""t"":58504},{""key"":""ArrowRight"",""event"":""keydown"",""t"":59379},{""key"":""ArrowUp"",""event"":""keydown"",""t"":59481},{""key"":""ArrowUp"",""event"":""keydown"",""t"":59980},{""key"":""ArrowUp"",""event"":""keydown"",""t"":60011},{""key"":""ArrowUp"",""event"":""keyup"",""t"":60036},{""key"":""ArrowUp"",""event"":""keydown"",""t"":60136},{""key"":""ArrowUp"",""event"":""keyup"",""t"":60222},{""key"":""ArrowUp"",""event"":""keydown"",""t"":60311},{""key"":""ArrowUp"",""event"":""keyup"",""t"":60412},{""key"":""ArrowUp"",""event"":""keydown"",""t"":60484},{""key"":""ArrowUp"",""event"":""keydown"",""t"":60983},{""key"":""ArrowUp"",""event"":""keydown"",""t"":61013},{""key"":""ArrowUp"",""event"":""keydown"",""t"":61045},{""key"":""ArrowUp"",""event"":""keydown"",""t"":61074},{""key"":""ArrowUp"",""event"":""keydown"",""t"":61107},{""key"":""ArrowUp"",""event"":""keydown"",""t"":61134},{""key"":""ArrowUp"",""event"":""keydown"",""t"":61164},{""key"":""ArrowUp"",""event"":""keydown"",""t"":61197},{""key"":""ArrowUp"",""event"":""keydown"",""t"":61227},{""key"":""ArrowUp"",""event"":""keydown"",""t"":61255},{""key"":""ArrowUp"",""event"":""keydown"",""t"":61285},{""key"":""ArrowUp"",""event"":""keyup"",""t"":61299},{""key"":""ArrowRight"",""event"":""keyup"",""t"":61582},{""key"":""ArrowLeft"",""event"":""keydown"",""t"":61828},{""key"":""ArrowLeft"",""event"":""keyup"",""t"":62040},{""key"":""ArrowRight"",""event"":""keydown"",""t"":62351},{""key"":""ArrowRight"",""event"":""keyup"",""t"":62711},{""key"":""ArrowLeft"",""event"":""keydown"",""t"":62735},{""key"":""ArrowUp"",""event"":""keydown"",""t"":63000},{""key"":""ArrowUp"",""event"":""keydown"",""t"":63504},{""key"":""ArrowUp"",""event"":""keyup"",""t"":63513},{""key"":""ArrowUp"",""event"":""keydown"",""t"":64694},{""key"":""ArrowUp"",""event"":""keyup"",""t"":64928},{""key"":""ArrowLeft"",""event"":""keyup"",""t"":65775},{""key"":""ArrowRight"",""event"":""keydown"",""t"":65849},{""key"":""ArrowRight"",""event"":""keydown"",""t"":66347},{""key"":""ArrowRight"",""event"":""keydown"",""t"":66378},{""key"":""ArrowRight"",""event"":""keydown"",""t"":66409},{""key"":""ArrowRight"",""event"":""keydown"",""t"":66438},{""key"":""ArrowRight"",""event"":""keydown"",""t"":66467},{""key"":""ArrowRight"",""event"":""keydown"",""t"":66497},{""key"":""ArrowRight"",""event"":""keydown"",""t"":66529},{""key"":""ArrowRight"",""event"":""keydown"",""t"":66560},{""key"":""ArrowRight"",""event"":""keydown"",""t"":66588},{""key"":""ArrowRight"",""event"":""keydown"",""t"":66618},{""key"":""ArrowRight"",""event"":""keydown"",""t"":66652},{""key"":""ArrowRight"",""event"":""keydown"",""t"":66679},{""key"":""ArrowRight"",""event"":""keydown"",""t"":66711},{""key"":""ArrowRight"",""event"":""keydown"",""t"":66738},{""key"":""ArrowRight"",""event"":""keydown"",""t"":66768},{""key"":""ArrowRight"",""event"":""keydown"",""t"":66798},{""key"":""ArrowRight"",""event"":""keydown"",""t"":66829},{""key"":""ArrowRight"",""event"":""keydown"",""t"":66861},{""key"":""ArrowRight"",""event"":""keydown"",""t"":66889},{""key"":""ArrowRight"",""event"":""keydown"",""t"":66919},{""key"":""ArrowRight"",""event"":""keydown"",""t"":66950},{""key"":""ArrowUp"",""event"":""keydown"",""t"":66978},{""key"":""ArrowUp"",""event"":""keydown"",""t"":67479},{""key"":""ArrowUp"",""event"":""keydown"",""t"":67509},{""key"":""ArrowUp"",""event"":""keydown"",""t"":67536},{""key"":""ArrowUp"",""event"":""keydown"",""t"":67567},{""key"":""ArrowUp"",""event"":""keydown"",""t"":67597},{""key"":""ArrowUp"",""event"":""keydown"",""t"":67628},{""key"":""ArrowUp"",""event"":""keydown"",""t"":67662},{""key"":""ArrowUp"",""event"":""keydown"",""t"":67687},{""key"":""ArrowUp"",""event"":""keydown"",""t"":67718},{""key"":""ArrowUp"",""event"":""keydown"",""t"":67747},{""key"":""ArrowUp"",""event"":""keydown"",""t"":67779},{""key"":""ArrowUp"",""event"":""keydown"",""t"":67810},{""key"":""ArrowUp"",""event"":""keydown"",""t"":67838},{""key"":""ArrowUp"",""event"":""keydown"",""t"":67867},{""key"":""ArrowUp"",""event"":""keydown"",""t"":67898},{""key"":""ArrowUp"",""event"":""keydown"",""t"":67928},{""key"":""ArrowUp"",""event"":""keydown"",""t"":67960},{""key"":""ArrowUp"",""event"":""keydown"",""t"":67988},{""key"":""ArrowUp"",""event"":""keydown"",""t"":68018},{""key"":""ArrowUp"",""event"":""keydown"",""t"":68048},{""key"":""ArrowUp"",""event"":""keyup"",""t"":68070},{""key"":""ArrowRight"",""event"":""keyup"",""t"":68637},{""key"":""ArrowLeft"",""event"":""keydown"",""t"":72080},{""key"":""ArrowLeft"",""event"":""keydown"",""t"":72578},{""key"":""ArrowLeft"",""event"":""keydown"",""t"":72608},{""key"":""ArrowLeft"",""event"":""keydown"",""t"":72636},{""key"":""ArrowLeft"",""event"":""keydown"",""t"":72667},{""key"":""ArrowLeft"",""event"":""keydown"",""t"":72696},{""key"":""ArrowLeft"",""event"":""keydown"",""t"":72728},{""key"":""ArrowLeft"",""event"":""keyup"",""t"":72737},{""key"":""ArrowRight"",""event"":""keydown"",""t"":75566},{""key"":""ArrowRight"",""event"":""keydown"",""t"":76064},{""key"":""ArrowRight"",""event"":""keydown"",""t"":76094},{""key"":""ArrowRight"",""event"":""keydown"",""t"":76126},{""key"":""ArrowRight"",""event"":""keydown"",""t"":76154},{""key"":""ArrowRight"",""event"":""keydown"",""t"":76184},{""key"":""ArrowRight"",""event"":""keydown"",""t"":76214},{""key"":""ArrowRight"",""event"":""keydown"",""t"":76244},{""key"":""ArrowRight"",""event"":""keydown"",""t"":76276},{""key"":""ArrowRight"",""event"":""keydown"",""t"":76304},{""key"":""ArrowRight"",""event"":""keydown"",""t"":76334},{""key"":""ArrowRight"",""event"":""keydown"",""t"":76365},{""key"":""ArrowRight"",""event"":""keydown"",""t"":76394},{""key"":""ArrowRight"",""event"":""keydown"",""t"":76425},{""key"":""ArrowRight"",""event"":""keydown"",""t"":76455},{""key"":""ArrowRight"",""event"":""keydown"",""t"":76484},{""key"":""ArrowRight"",""event"":""keydown"",""t"":76515},{""key"":""ArrowRight"",""event"":""keydown"",""t"":76545},{""key"":""ArrowRight"",""event"":""keydown"",""t"":76576},{""key"":""ArrowRight"",""event"":""keydown"",""t"":76606},{""key"":""ArrowRight"",""event"":""keydown"",""t"":76635},{""key"":""ArrowUp"",""event"":""keydown"",""t"":76648},{""key"":""ArrowUp"",""event"":""keydown"",""t"":77148},{""key"":""ArrowUp"",""event"":""keydown"",""t"":77178},{""key"":""ArrowUp"",""event"":""keydown"",""t"":77210},{""key"":""ArrowUp"",""event"":""keydown"",""t"":77241},{""key"":""ArrowUp"",""event"":""keydown"",""t"":77270},{""key"":""ArrowUp"",""event"":""keydown"",""t"":77301},{""key"":""ArrowUp"",""event"":""keydown"",""t"":77330},{""key"":""ArrowUp"",""event"":""keydown"",""t"":77361},{""key"":""ArrowUp"",""event"":""keydown"",""t"":77393},{""key"":""ArrowUp"",""event"":""keydown"",""t"":77421},{""key"":""ArrowUp"",""event"":""keydown"",""t"":77451},{""key"":""ArrowUp"",""event"":""keydown"",""t"":77482},{""key"":""ArrowUp"",""event"":""keydown"",""t"":77511},{""key"":""ArrowUp"",""event"":""keydown"",""t"":77543},{""key"":""ArrowUp"",""event"":""keydown"",""t"":77573},{""key"":""ArrowUp"",""event"":""keydown"",""t"":77606},{""key"":""ArrowUp"",""event"":""keydown"",""t"":77634},{""key"":""ArrowUp"",""event"":""keyup"",""t"":77643},{""key"":""ArrowUp"",""event"":""keydown"",""t"":77800},{""key"":""ArrowUp"",""event"":""keydown"",""t"":78303},{""key"":""ArrowUp"",""event"":""keydown"",""t"":78333},{""key"":""ArrowUp"",""event"":""keydown"",""t"":78362},{""key"":""ArrowUp"",""event"":""keydown"",""t"":78393},{""key"":""ArrowUp"",""event"":""keydown"",""t"":78425},{""key"":""ArrowUp"",""event"":""keydown"",""t"":78453},{""key"":""ArrowUp"",""event"":""keydown"",""t"":78487},{""key"":""ArrowUp"",""event"":""keydown"",""t"":78513},{""key"":""ArrowUp"",""event"":""keydown"",""t"":78543},{""key"":""ArrowUp"",""event"":""keydown"",""t"":78575},{""key"":""ArrowUp"",""event"":""keydown"",""t"":78603},{""key"":""ArrowUp"",""event"":""keyup"",""t"":78613},{""key"":""ArrowUp"",""event"":""keydown"",""t"":78729},{""key"":""ArrowUp"",""event"":""keyup"",""t"":78798},{""key"":""ArrowUp"",""event"":""keydown"",""t"":78896},{""key"":""ArrowUp"",""event"":""keyup"",""t"":78984},{""key"":""ArrowUp"",""event"":""keydown"",""t"":79085},{""key"":""ArrowUp"",""event"":""keyup"",""t"":79160},{""key"":""ArrowUp"",""event"":""keydown"",""t"":79251},{""key"":""ArrowUp"",""event"":""keyup"",""t"":79390},{""key"":""ArrowUp"",""event"":""keydown"",""t"":79463},{""key"":""ArrowUp"",""event"":""keyup"",""t"":79586},{""key"":""ArrowRight"",""event"":""keyup"",""t"":79862},{""key"":""ArrowUp"",""event"":""keydown"",""t"":79977},{""key"":""ArrowDown"",""event"":""keydown"",""t"":80040},{""key"":""ArrowDown"",""event"":""keyup"",""t"":80160},{""key"":""ArrowLeft"",""event"":""keydown"",""t"":80226},{""key"":""ArrowUp"",""event"":""keyup"",""t"":80486},{""key"":""ArrowRight"",""event"":""keydown"",""t"":80494},{""key"":""ArrowLeft"",""event"":""keyup"",""t"":80501},{""key"":""ArrowDown"",""event"":""keydown"",""t"":80646},{""key"":""ArrowDown"",""event"":""keyup"",""t"":80683},{""key"":""ArrowUp"",""event"":""keydown"",""t"":81054},{""key"":""ArrowUp"",""event"":""keyup"",""t"":81576},{""key"":""ArrowDown"",""event"":""keydown"",""t"":81579},{""key"":""ArrowDown"",""event"":""keyup"",""t"":81607},{""key"":""ArrowDown"",""event"":""keydown"",""t"":81660},{""key"":""ArrowDown"",""event"":""keyup"",""t"":82052},{""key"":""ArrowRight"",""event"":""keyup"",""t"":82305},{""key"":""ArrowRight"",""event"":""keydown"",""t"":82442},{""key"":""ArrowRight"",""event"":""keyup"",""t"":82598},{""key"":""ArrowRight"",""event"":""keydown"",""t"":82665},{""key"":""ArrowRight"",""event"":""keyup"",""t"":82786},{""key"":""ArrowRight"",""event"":""keydown"",""t"":82858},{""key"":""ArrowRight"",""event"":""keyup"",""t"":82927},{""key"":""ArrowRight"",""event"":""keydown"",""t"":83023},{""key"":""ArrowRight"",""event"":""keyup"",""t"":83078},{""key"":""ArrowRight"",""event"":""keydown"",""t"":83182},{""key"":""ArrowRight"",""event"":""keyup"",""t"":83226},{""key"":""ArrowRight"",""event"":""keydown"",""t"":83330},{""key"":""ArrowRight"",""event"":""keyup"",""t"":83375},{""key"":""ArrowRight"",""event"":""keydown"",""t"":83476},{""key"":""ArrowRight"",""event"":""keyup"",""t"":83535},{""key"":""ArrowRight"",""event"":""keydown"",""t"":83625},{""key"":""ArrowRight"",""event"":""keyup"",""t"":83676},{""key"":""ArrowRight"",""event"":""keydown"",""t"":83758},{""key"":""ArrowRight"",""event"":""keyup"",""t"":83823},{""key"":""CapsLock"",""event"":""keydown"",""t"":87402},{""key"":""CapsLock"",""event"":""keyup"",""t"":87563},{""key"":""W"",""event"":""keydown"",""t"":87603},{""key"":""CapsLock"",""event"":""keydown"",""t"":87708},{""key"":""w"",""event"":""keyup"",""t"":87741},{""key"":""CapsLock"",""event"":""keyup"",""t"":87865},{""key"":""a"",""event"":""keydown"",""t"":88302},{""key"":""l"",""event"":""keydown"",""t"":88416},{""key"":""a"",""event"":""keyup"",""t"":88436},{""key"":""l"",""event"":""keyup"",""t"":88453},{""key"":""l"",""event"":""keydown"",""t"":88533},{""key"":""s"",""event"":""keydown"",""t"":88621},{""key"":""l"",""event"":""keyup"",""t"":88631},{""key"":""s"",""event"":""keyup"",""t"":88717},{""key"":"" "",""event"":""keydown"",""t"":88744},{""key"":"" "",""event"":""keyup"",""t"":88815},{""key"":""a"",""event"":""keydown"",""t"":88844},{""key"":""a"",""event"":""keyup"",""t"":88934},{""key"":""r"",""event"":""keydown"",""t"":89052},{""key"":""r"",""event"":""keyup"",""t"":89123},{""key"":""e"",""event"":""keydown"",""t"":89209},{""key"":""e"",""event"":""keyup"",""t"":89283},{""key"":"" "",""event"":""keydown"",""t"":89296},{""key"":"" "",""event"":""keyup"",""t"":89363},{""key"":""t"",""event"":""keydown"",""t"":89410},{""key"":""t"",""event"":""keyup"",""t"":89461},{""key"":""o"",""event"":""keydown"",""t"":89497},{""key"":""o"",""event"":""keyup"",""t"":89559},{""key"":""o"",""event"":""keydown"",""t"":89614},{""key"":""o"",""event"":""keyup"",""t"":89693},{""key"":"" "",""event"":""keydown"",""t"":89757},{""key"":"" "",""event"":""keyup"",""t"":89843},{""key"":""t"",""event"":""keydown"",""t"":89849},{""key"":""t"",""event"":""keyup"",""t"":89931},{""key"":""a"",""event"":""keydown"",""t"":90052},{""key"":""a"",""event"":""keyup"",""t"":90138},{""key"":""l"",""event"":""keydown"",""t"":90143},{""key"":""l"",""event"":""keyup"",""t"":90174},{""key"":""l"",""event"":""keydown"",""t"":90244},{""key"":""l"",""event"":""keyup"",""t"":90328},{""key"":"" "",""event"":""keydown"",""t"":90396},{""key"":"" "",""event"":""keyup"",""t"":90473},{""key"":""t"",""event"":""keydown"",""t"":90493},{""key"":""t"",""event"":""keyup"",""t"":90559},{""key"":""o"",""event"":""keydown"",""t"":90584},{""key"":""o"",""event"":""keyup"",""t"":90650},{""key"":"" "",""event"":""keydown"",""t"":90711},{""key"":"" "",""event"":""keyup"",""t"":90811},{""key"":""j"",""event"":""keydown"",""t"":91026},{""key"":""j"",""event"":""keyup"",""t"":91104},{""key"":""u"",""event"":""keydown"",""t"":91227},{""key"":""u"",""event"":""keyup"",""t"":91286},{""key"":""m"",""event"":""keydown"",""t"":91525},{""key"":""p"",""event"":""keydown"",""t"":91650},{""key"":""m"",""event"":""keyup"",""t"":91699},{""key"":""p"",""event"":""keyup"",""t"":91763},{""key"":"" "",""event"":""keydown"",""t"":91826},{""key"":"" "",""event"":""keyup"",""t"":91892},{""key"":""p"",""event"":""keydown"",""t"":92347},{""key"":""p"",""event"":""keyup"",""t"":92408},{""key"":""v"",""event"":""keydown"",""t"":92610},{""key"":""v"",""event"":""keyup"",""t"":92666},{""key"":""e"",""event"":""keydown"",""t"":92713},{""key"":""e"",""event"":""keyup"",""t"":92767},{""key"":""Backspace"",""event"":""keydown"",""t"":93096},{""key"":""Backspace"",""event"":""keyup"",""t"":93148},{""key"":""Backspace"",""event"":""keydown"",""t"":93217},{""key"":""Backspace"",""event"":""keyup"",""t"":93286},{""key"":""Backspace"",""event"":""keydown"",""t"":93375},{""key"":""Backspace"",""event"":""keyup"",""t"":93466},{""key"":""o"",""event"":""keydown"",""t"":93779},{""key"":""o"",""event"":""keyup"",""t"":93842},{""key"":""v"",""event"":""keydown"",""t"":93994},{""key"":""v"",""event"":""keyup"",""t"":94068},{""key"":""e"",""event"":""keydown"",""t"":94074},{""key"":""e"",""event"":""keyup"",""t"":94146},{""key"":""r"",""event"":""keydown"",""t"":94233},{""key"":""r"",""event"":""keyup"",""t"":94313},{""key"":"" "",""event"":""keydown"",""t"":94326},{""key"":"" "",""event"":""keyup"",""t"":94411},{""key"":""a"",""event"":""keydown"",""t"":94444},{""key"":""n"",""event"":""keydown"",""t"":94507},{""key"":""a"",""event"":""keyup"",""t"":94521},{""key"":""n"",""event"":""keyup"",""t"":94583},{""key"":""d"",""event"":""keydown"",""t"":94616},{""key"":"" "",""event"":""keydown"",""t"":94675},{""key"":""d"",""event"":""keyup"",""t"":94692},{""key"":"" "",""event"":""keyup"",""t"":94743},{""key"":""m"",""event"":""keydown"",""t"":94841},{""key"":""m"",""event"":""keyup"",""t"":94918},{""key"":""a"",""event"":""keydown"",""t"":94925},{""key"":""a"",""event"":""keyup"",""t"":94995},{""key"":""k"",""event"":""keydown"",""t"":95001},{""key"":""k"",""event"":""keyup"",""t"":95078},{""key"":""e"",""event"":""keydown"",""t"":95096},{""key"":"" "",""event"":""keydown"",""t"":95147},{""key"":""e"",""event"":""keyup"",""t"":95164},{""key"":"" "",""event"":""keyup"",""t"":95231},{""key"":""i"",""event"":""keydown"",""t"":95313},{""key"":""t"",""event"":""keydown"",""t"":95347},{""key"":""i"",""event"":""keyup"",""t"":95388},{""key"":""t"",""event"":""keyup"",""t"":95415},{""key"":"" "",""event"":""keydown"",""t"":95586},{""key"":"" "",""event"":""keyup"",""t"":95668},{""key"":""t"",""event"":""keydown"",""t"":95781},{""key"":""t"",""event"":""keyup"",""t"":95860},{""key"":""o"",""event"":""keydown"",""t"":95870},{""key"":""o"",""event"":""keyup"",""t"":95917},{""key"":"" "",""event"":""keydown"",""t"":95995},{""key"":""t"",""event"":""keydown"",""t"":96041},{""key"":"" "",""event"":""keyup"",""t"":96060},{""key"":""t"",""event"":""keyup"",""t"":96132},{""key"":""h"",""event"":""keydown"",""t"":96175},{""key"":""h"",""event"":""keyup"",""t"":96231},{""key"":""e"",""event"":""keydown"",""t"":96238},{""key"":""e"",""event"":""keyup"",""t"":96309},{""key"":"" "",""event"":""keydown"",""t"":96328},{""key"":"" "",""event"":""keyup"",""t"":96392},{""key"":""e"",""event"":""keydown"",""t"":96409},{""key"":""e"",""event"":""keyup"",""t"":96474},{""key"":""n"",""event"":""keydown"",""t"":96478},{""key"":""n"",""event"":""keyup"",""t"":96559},{""key"":""d"",""event"":""keydown"",""t"":96559},{""key"":""d"",""event"":""keyup"",""t"":96659}]","[]"
"156032","","{""creativity-rating"":1,""creativity-free-response"":""I have played many games like this before where the purpose is to jump over obstacles and make it to the end of the course. The walls themselves were also not aesthetically very nice looking so it lacked creativity for that too."",""originality-rating"":1,""originality-free-response"":""The mechanics felt familiar and unoriginal. The controls of using the arrow keys was predictable. I also did not understand the purpose of renaming obstacles as it served no benefit."",""effectiveness-rating"":1,""effectiveness-free-response"":""I did not enjoy the game because the mechanics made it impossible to win. The second and third wall were too tall for the cube to jump over so it did not have an ending. Also, the renaming of the obstacles did not work properly and really served no purpose."",""authenticity-rating"":1,""attention-check"":3,""intentionality-rating"":2,""authenticity-intentionality-free-response"":""The game felt unoriginal and like a copy of other simple games I have seen. Also, there was no original aspect in terms of the blocks/walls themselves so this shows me a lack of effort.""}","evaluation-gemini-5-rename","survey","12","1647142","0.0-12.0","67be6a20a52466ed9267d895","6987c292780adf01bb926159","69a63959a4e43a947333f971","","","","","","",""
"16144","","{""concept-creativity-rating"":5,""concept-implementation-rating"":1,""question1"":null}","concept-gemini-5-rename","survey","13","1663330","0.0-13.0","67be6a20a52466ed9267d895","6987c292780adf01bb926159","69a63959a4e43a947333f971","","","","","","",""
"2628","You have completed all of the games!<br><br>Press any key to proceed to some final questions before returning to Prolific."," ","pre-baseline-questions","html-keyboard-response","14","1665961","0.0-14.0","67be6a20a52466ed9267d895","6987c292780adf01bb926159","69a63959a4e43a947333f971","","","","","","",""
"20544","","{""baseline_originality_rating"":4,""baseline_effectiveness_rating"":4,""baseline_authenticity_rating"":3,""baseline_intentionality_rating"":2}","baseline-questions-rating","survey","15","1686563","0.0-15.0","67be6a20a52466ed9267d895","6987c292780adf01bb926159","69a63959a4e43a947333f971","","","","","","",""
"46765","","{""ai_aware_question"":""No, I evaluated them independently and did not consider the fact that they were generated by AI. I evaluated the game for what it was and how original the concept was.""}","ai-aware-question","survey","16","1733346","0.0-16.0","67be6a20a52466ed9267d895","6987c292780adf01bb926159","69a63959a4e43a947333f971","","","","","","",""
"5142","
        <p> You have completed the experiment! Press any key to save your data and get redirected back to Prolific. <strong>Please do not close the page until you have been redirected to Prolific.</strong> <p>
      "," ","goodbye","html-keyboard-response","17","1738491","0.0-17.0","67be6a20a52466ed9267d895","6987c292780adf01bb926159","69a63959a4e43a947333f971","","","","","","",""
