"rt","stimulus","response","phase","trial_type","trial_index","time_elapsed","internal_node_id","prolific_subject_id","study_id","session_id","exit_reason","exit_stage","exit_progress","game_data","emergency_text","keystrokes","mouse_events"
"13520","Welcome! In this study, you will play three short video games, completing a short survey after each game.<br><br>Please make sure you are in a quiet environment where you can focus for the duration of the study. Some games may use sound, so please ensure that your device's volume is not muted.<br><br>Press any key to begin.","arrowup","welcome-message","html-keyboard-response","0","13525","0.0-0.0","69139019e887fef6bf369ea3","6987c292780adf01bb926159","69a7262c89117c17c48a90a6","","","","","","",""
"9016","","{""commitment-check"":[""yes""]}","commitment-check","survey","1","22575","0.0-1.0","69139019e887fef6bf369ea3","6987c292780adf01bb926159","69a7262c89117c17c48a90a6","","","","","","",""
"5253","Press any key to proceed to the first video game. Should you encounter a game-breaking bug, please report the issue in the Menu tab to the right of the screen."," ","pre-game-one-message","html-keyboard-response","2","27828","0.0-2.0","69139019e887fef6bf369ea3","6987c292780adf01bb926159","69a7262c89117c17c48a90a6","","","","","","",""
"113883","","","game-gemini-4-substratum","plugin-game-iframe","3","141715","0.0-3.0","69139019e887fef6bf369ea3","6987c292780adf01bb926159","69a7262c89117c17c48a90a6","emergency-exit","level 1/3 24%","{""stage"":""level 1/3 24%"",""detail"":{""levelIndex"":0,""levelNum"":1,""totalLevels"":3,""progressPct"":24,""heroX"":200,""heroMoving"":false,""isGameOver"":true}}","null","Dragging the strips does nothing? I am using a large TV screen and he just keeps running to the right and dying. Dragging top or buttom does nothing...","[{""key"":"" "",""event"":""keyup"",""t"":95},{""key"":"" "",""event"":""keydown"",""t"":7271},{""key"":"" "",""event"":""keyup"",""t"":7631},{""key"":"" "",""event"":""keydown"",""t"":9327},{""key"":"" "",""event"":""keydown"",""t"":9840},{""key"":"" "",""event"":""keydown"",""t"":9870},{""key"":"" "",""event"":""keyup"",""t"":9871},{""key"":"" "",""event"":""keydown"",""t"":43424},{""key"":"" "",""event"":""keyup"",""t"":43583},{""key"":""ArrowUp"",""event"":""keydown"",""t"":44407},{""key"":""ArrowUp"",""event"":""keyup"",""t"":44727},{""key"":""ArrowUp"",""event"":""keydown"",""t"":44815},{""key"":""ArrowUp"",""event"":""keyup"",""t"":44935},{""key"":"" "",""event"":""keydown"",""t"":45127},{""key"":"" "",""event"":""keyup"",""t"":45327},{""key"":"" "",""event"":""keydown"",""t"":45415},{""key"":"" "",""event"":""keyup"",""t"":45535},{""key"":"" "",""event"":""keydown"",""t"":45583},{""key"":"" "",""event"":""keyup"",""t"":45703},{""key"":""Shift"",""event"":""keydown"",""t"":92287},{""key"":""D"",""event"":""keydown"",""t"":92551},{""key"":""Shift"",""event"":""keyup"",""t"":92647},{""key"":""d"",""event"":""keyup"",""t"":92671},{""key"":""r"",""event"":""keydown"",""t"":92775},{""key"":""a"",""event"":""keydown"",""t"":92871},{""key"":""r"",""event"":""keyup"",""t"":92935},{""key"":""g"",""event"":""keydown"",""t"":93031},{""key"":""a"",""event"":""keyup"",""t"":93055},{""key"":""g"",""event"":""keyup"",""t"":93111},{""key"":""g"",""event"":""keydown"",""t"":93191},{""key"":""i"",""event"":""keydown"",""t"":93255},{""key"":""g"",""event"":""keyup"",""t"":93312},{""key"":""n"",""event"":""keydown"",""t"":93335},{""key"":""g"",""event"":""keydown"",""t"":93391},{""key"":""n"",""event"":""keyup"",""t"":93431},{""key"":""i"",""event"":""keyup"",""t"":93455},{""key"":"" "",""event"":""keydown"",""t"":93471},{""key"":""g"",""event"":""keyup"",""t"":93495},{""key"":""t"",""event"":""keydown"",""t"":93575},{""key"":""h"",""event"":""keydown"",""t"":93592},{""key"":"" "",""event"":""keyup"",""t"":93615},{""key"":""t"",""event"":""keyup"",""t"":93671},{""key"":""e"",""event"":""keydown"",""t"":93695},{""key"":""h"",""event"":""keyup"",""t"":93711},{""key"":"" "",""event"":""keydown"",""t"":93735},{""key"":""e"",""event"":""keyup"",""t"":93775},{""key"":""s"",""event"":""keydown"",""t"":93816},{""key"":"" "",""event"":""keyup"",""t"":93895},{""key"":""t"",""event"":""keydown"",""t"":93911},{""key"":""s"",""event"":""keyup"",""t"":93951},{""key"":""t"",""event"":""keyup"",""t"":93975},{""key"":""r"",""event"":""keydown"",""t"":94039},{""key"":""i"",""event"":""keydown"",""t"":94119},{""key"":""r"",""event"":""keyup"",""t"":94183},{""key"":""p"",""event"":""keydown"",""t"":94239},{""key"":""i"",""event"":""keyup"",""t"":94319},{""key"":""s"",""event"":""keydown"",""t"":94344},{""key"":""p"",""event"":""keyup"",""t"":94399},{""key"":"" "",""event"":""keydown"",""t"":94423},{""key"":""s"",""event"":""keyup"",""t"":94439},{""key"":""d"",""event"":""keydown"",""t"":94543},{""key"":"" "",""event"":""keyup"",""t"":94560},{""key"":""o"",""event"":""keydown"",""t"":94599},{""key"":""d"",""event"":""keyup"",""t"":94639},{""key"":""e"",""event"":""keydown"",""t"":94719},{""key"":""s"",""event"":""keydown"",""t"":94760},{""key"":""o"",""event"":""keyup"",""t"":94783},{""key"":"" "",""event"":""keydown"",""t"":94824},{""key"":""e"",""event"":""keyup"",""t"":94839},{""key"":""s"",""event"":""keyup"",""t"":94904},{""key"":""n"",""event"":""keydown"",""t"":94919},{""key"":"" "",""event"":""keyup"",""t"":94959},{""key"":""o"",""event"":""keydown"",""t"":94983},{""key"":""n"",""event"":""keyup"",""t"":95063},{""key"":""t"",""event"":""keydown"",""t"":95104},{""key"":""o"",""event"":""keyup"",""t"":95159},{""key"":""h"",""event"":""keydown"",""t"":95183},{""key"":""i"",""event"":""keydown"",""t"":95239},{""key"":""t"",""event"":""keyup"",""t"":95263},{""key"":""h"",""event"":""keyup"",""t"":95303},{""key"":""n"",""event"":""keydown"",""t"":95343},{""key"":""g"",""event"":""keydown"",""t"":95383},{""key"":""i"",""event"":""keyup"",""t"":95423},{""key"":""n"",""event"":""keyup"",""t"":95463},{""key"":""g"",""event"":""keyup"",""t"":95479},{""key"":""Shift"",""event"":""keydown"",""t"":95503},{""key"":""?"",""event"":""keydown"",""t"":95599},{""key"":""?"",""event"":""keyup"",""t"":95759},{""key"":""Shift"",""event"":""keyup"",""t"":95959},{""key"":"" "",""event"":""keydown"",""t"":96215},{""key"":""Shift"",""event"":""keydown"",""t"":96295},{""key"":"" "",""event"":""keyup"",""t"":96335},{""key"":""I"",""event"":""keydown"",""t"":96479},{""key"":"" "",""event"":""keydown"",""t"":96599},{""key"":""Shift"",""event"":""keyup"",""t"":96615},{""key"":""i"",""event"":""keyup"",""t"":96695},{""key"":"" "",""event"":""keyup"",""t"":96751},{""key"":""a"",""event"":""keydown"",""t"":97279},{""key"":""a"",""event"":""keyup"",""t"":97439},{""key"":""m"",""event"":""keydown"",""t"":97463},{""key"":""m"",""event"":""keyup"",""t"":97583},{""key"":"" "",""event"":""keydown"",""t"":97599},{""key"":""u"",""event"":""keydown"",""t"":97744},{""key"":"" "",""event"":""keyup"",""t"":97759},{""key"":""s"",""event"":""keydown"",""t"":97824},{""key"":""u"",""event"":""keyup"",""t"":97839},{""key"":""i"",""event"":""keydown"",""t"":97904},{""key"":""n"",""event"":""keydown"",""t"":97959},{""key"":""s"",""event"":""keyup"",""t"":97983},{""key"":""g"",""event"":""keydown"",""t"":98023},{""key"":""i"",""event"":""keyup"",""t"":98063},{""key"":""n"",""event"":""keyup"",""t"":98079},{""key"":"" "",""event"":""keydown"",""t"":98103},{""key"":""g"",""event"":""keyup"",""t"":98119},{""key"":"" "",""event"":""keyup"",""t"":98159},{""key"":""a"",""event"":""keydown"",""t"":98183},{""key"":"" "",""event"":""keydown"",""t"":98263},{""key"":""a"",""event"":""keyup"",""t"":98279},{""key"":"" "",""event"":""keyup"",""t"":98359},{""key"":""l"",""event"":""keydown"",""t"":98408},{""key"":""a"",""event"":""keydown"",""t"":98431},{""key"":""r"",""event"":""keydown"",""t"":98511},{""key"":""l"",""event"":""keyup"",""t"":98528},{""key"":""a"",""event"":""keyup"",""t"":98567},{""key"":""r"",""event"":""keyup"",""t"":98607},{""key"":""g"",""event"":""keydown"",""t"":98687},{""key"":""e"",""event"":""keydown"",""t"":98751},{""key"":""g"",""event"":""keyup"",""t"":98767},{""key"":"" "",""event"":""keydown"",""t"":98815},{""key"":""e"",""event"":""keyup"",""t"":98855},{""key"":""Shift"",""event"":""keydown"",""t"":98895},{""key"":"" "",""event"":""keyup"",""t"":98951},{""key"":""T"",""event"":""keydown"",""t"":98975},{""key"":""T"",""event"":""keyup"",""t"":99071},{""key"":""V"",""event"":""keydown"",""t"":99151},{""key"":""V"",""event"":""keyup"",""t"":99295},{""key"":""Shift"",""event"":""keyup"",""t"":99311},{""key"":"" "",""event"":""keydown"",""t"":99335},{""key"":""s"",""event"":""keydown"",""t"":99415},{""key"":"" "",""event"":""keyup"",""t"":99431},{""key"":""s"",""event"":""keyup"",""t"":99535},{""key"":""c"",""event"":""keydown"",""t"":99551},{""key"":""c"",""event"":""keyup"",""t"":99631},{""key"":""r"",""event"":""keydown"",""t"":99719},{""key"":""e"",""event"":""keydown"",""t"":99759},{""key"":""r"",""event"":""keyup"",""t"":99815},{""key"":""e"",""event"":""keyup"",""t"":99839},{""key"":""e"",""event"":""keydown"",""t"":99903},{""key"":""n"",""event"":""keydown"",""t"":99983},{""key"":""e"",""event"":""keyup"",""t"":100023},{""key"":"" "",""event"":""keydown"",""t"":100039},{""key"":""a"",""event"":""keydown"",""t"":100079},{""key"":""n"",""event"":""keyup"",""t"":100103},{""key"":"" "",""event"":""keyup"",""t"":100143},{""key"":""a"",""event"":""keyup"",""t"":100159},{""key"":""n"",""event"":""keydown"",""t"":100183},{""key"":""d"",""event"":""keydown"",""t"":100279},{""key"":""n"",""event"":""keyup"",""t"":100319},{""key"":"" "",""event"":""keydown"",""t"":100359},{""key"":""d"",""event"":""keyup"",""t"":100383},{""key"":"" "",""event"":""keyup"",""t"":100503},{""key"":""h"",""event"":""keydown"",""t"":100879},{""key"":""e"",""event"":""keydown"",""t"":100943},{""key"":""h"",""event"":""keyup"",""t"":100999},{""key"":"" "",""event"":""keydown"",""t"":101023},{""key"":""e"",""event"":""keyup"",""t"":101079},{""key"":""j"",""event"":""keydown"",""t"":101103},{""key"":"" "",""event"":""keyup"",""t"":101160},{""key"":""j"",""event"":""keyup"",""t"":101183},{""key"":""u"",""event"":""keydown"",""t"":101231},{""key"":""s"",""event"":""keydown"",""t"":101271},{""key"":""t"",""event"":""keydown"",""t"":101311},{""key"":""u"",""event"":""keyup"",""t"":101351},{""key"":"" "",""event"":""keydown"",""t"":101375},{""key"":""s"",""event"":""keyup"",""t"":101391},{""key"":""t"",""event"":""keyup"",""t"":101431},{""key"":""k"",""event"":""keydown"",""t"":101471},{""key"":""j"",""event"":""keydown"",""t"":101496},{""key"":"" "",""event"":""keyup"",""t"":101511},{""key"":""e"",""event"":""keydown"",""t"":101551},{""key"":""j"",""event"":""keyup"",""t"":101575},{""key"":""k"",""event"":""keyup"",""t"":101591},{""key"":""e"",""event"":""keyup"",""t"":101655},{""key"":""Backspace"",""event"":""keydown"",""t"":101847},{""key"":""Backspace"",""event"":""keyup"",""t"":101927},{""key"":""Backspace"",""event"":""keydown"",""t"":101991},{""key"":""e"",""event"":""keydown"",""t"":102095},{""key"":""Backspace"",""event"":""keyup"",""t"":102151},{""key"":""e"",""event"":""keyup"",""t"":102191},{""key"":""e"",""event"":""keydown"",""t"":102271},{""key"":""p"",""event"":""keydown"",""t"":102351},{""key"":""e"",""event"":""keyup"",""t"":102391},{""key"":""s"",""event"":""keydown"",""t"":102447},{""key"":""p"",""event"":""keyup"",""t"":102487},{""key"":"" "",""event"":""keydown"",""t"":102511},{""key"":""s"",""event"":""keyup"",""t"":102551},{""key"":""r"",""event"":""keydown"",""t"":102607},{""key"":"" "",""event"":""keyup"",""t"":102647},{""key"":""u"",""event"":""keydown"",""t"":102687},{""key"":""n"",""event"":""keydown"",""t"":102751},{""key"":""r"",""event"":""keyup"",""t"":102767},{""key"":""u"",""event"":""keyup"",""t"":102791},{""key"":""n"",""event"":""keyup"",""t"":102847},{""key"":""n"",""event"":""keydown"",""t"":102983},{""key"":""i"",""event"":""keydown"",""t"":103064},{""key"":""n"",""event"":""keyup"",""t"":103103},{""key"":""n"",""event"":""keydown"",""t"":103167},{""key"":""g"",""event"":""keydown"",""t"":103247},{""key"":""i"",""event"":""keyup"",""t"":103287},{""key"":""n"",""event"":""keyup"",""t"":103303},{""key"":"" "",""event"":""keydown"",""t"":103327},{""key"":""g"",""event"":""keyup"",""t"":103344},{""key"":""t"",""event"":""keydown"",""t"":103407},{""key"":""o"",""event"":""keydown"",""t"":103423},{""key"":"" "",""event"":""keyup"",""t"":103463},{""key"":""t"",""event"":""keyup"",""t"":103503},{""key"":"" "",""event"":""keydown"",""t"":103527},{""key"":""o"",""event"":""keyup"",""t"":103583},{""key"":""t"",""event"":""keydown"",""t"":103607},{""key"":""h"",""event"":""keydown"",""t"":103624},{""key"":"" "",""event"":""keyup"",""t"":103663},{""key"":""t"",""event"":""keyup"",""t"":103687},{""key"":""e"",""event"":""keydown"",""t"":103703},{""key"":""h"",""event"":""keyup"",""t"":103743},{""key"":"" "",""event"":""keydown"",""t"":103760},{""key"":""e"",""event"":""keyup"",""t"":103783},{""key"":""r"",""event"":""keydown"",""t"":103824},{""key"":""i"",""event"":""keydown"",""t"":103880},{""key"":"" "",""event"":""keyup"",""t"":103904},{""key"":""r"",""event"":""keyup"",""t"":103919},{""key"":""g"",""event"":""keydown"",""t"":103983},{""key"":""i"",""event"":""keyup"",""t"":103999},{""key"":""h"",""event"":""keydown"",""t"":104039},{""key"":""g"",""event"":""keyup"",""t"":104063},{""key"":""t"",""event"":""keydown"",""t"":104103},{""key"":""h"",""event"":""keyup"",""t"":104159},{""key"":"" "",""event"":""keydown"",""t"":104185},{""key"":""t"",""event"":""keyup"",""t"":104223},{""key"":""a"",""event"":""keydown"",""t"":104239},{""key"":"" "",""event"":""keyup"",""t"":104279},{""key"":""n"",""event"":""keydown"",""t"":104303},{""key"":""a"",""event"":""keyup"",""t"":104343},{""key"":""d"",""event"":""keydown"",""t"":104383},{""key"":""n"",""event"":""keyup"",""t"":104423},{""key"":"" "",""event"":""keydown"",""t"":104439},{""key"":""d"",""event"":""keyup"",""t"":104463},{""key"":""d"",""event"":""keydown"",""t"":104543},{""key"":"" "",""event"":""keyup"",""t"":104583},{""key"":""y"",""event"":""keydown"",""t"":104663},{""key"":""d"",""event"":""keyup"",""t"":104703},{""key"":""i"",""event"":""keydown"",""t"":104743},{""key"":""y"",""event"":""keyup"",""t"":104783},{""key"":""n"",""event"":""keydown"",""t"":104863},{""key"":""g"",""event"":""keydown"",""t"":104919},{""key"":""i"",""event"":""keyup"",""t"":104943},{""key"":""n"",""event"":""keyup"",""t"":104983},{""key"":""g"",""event"":""keyup"",""t"":105023},{""key"":""."",""event"":""keydown"",""t"":105079},{""key"":"" "",""event"":""keydown"",""t"":105119},{""key"":""."",""event"":""keyup"",""t"":105159},{""key"":""Shift"",""event"":""keydown"",""t"":105183},{""key"":"" "",""event"":""keyup"",""t"":105239},{""key"":""D"",""event"":""keydown"",""t"":105463},{""key"":""D"",""event"":""keyup"",""t"":105599},{""key"":""Shift"",""event"":""keyup"",""t"":105623},{""key"":""r"",""event"":""keydown"",""t"":105920},{""key"":""a"",""event"":""keydown"",""t"":106000},{""key"":""r"",""event"":""keyup"",""t"":106039},{""key"":""a"",""event"":""keyup"",""t"":106119},{""key"":""g"",""event"":""keydown"",""t"":106135},{""key"":""g"",""event"":""keyup"",""t"":106199},{""key"":""g"",""event"":""keydown"",""t"":106287},{""key"":""i"",""event"":""keydown"",""t"":106327},{""key"":""n"",""event"":""keydown"",""t"":106383},{""key"":""g"",""event"":""keyup"",""t"":106407},{""key"":""i"",""event"":""keyup"",""t"":106463},{""key"":""n"",""event"":""keyup"",""t"":106487},{""key"":""g"",""event"":""keydown"",""t"":106672},{""key"":""g"",""event"":""keyup"",""t"":106775},{""key"":"" "",""event"":""keydown"",""t"":106823},{""key"":"" "",""event"":""keyup"",""t"":106919},{""key"":""d"",""event"":""keydown"",""t"":106967},{""key"":""d"",""event"":""keyup"",""t"":107111},{""key"":""Backspace"",""event"":""keydown"",""t"":107327},{""key"":""t"",""event"":""keydown"",""t"":107344},{""key"":""Backspace"",""event"":""keyup"",""t"":107383},{""key"":""o"",""event"":""keydown"",""t"":107448},{""key"":""t"",""event"":""keyup"",""t"":107503},{""key"":""p"",""event"":""keydown"",""t"":107527},{""key"":""o"",""event"":""keyup"",""t"":107607},{""key"":"" "",""event"":""keydown"",""t"":107623},{""key"":""p"",""event"":""keyup"",""t"":107639},{""key"":"" "",""event"":""keyup"",""t"":107783},{""key"":""r"",""event"":""keydown"",""t"":107855},{""key"":""r"",""event"":""keyup"",""t"":108015},{""key"":""Backspace"",""event"":""keydown"",""t"":108263},{""key"":""o"",""event"":""keydown"",""t"":108383},{""key"":""Backspace"",""event"":""keyup"",""t"":108423},{""key"":""r"",""event"":""keydown"",""t"":108487},{""key"":""o"",""event"":""keyup"",""t"":108527},{""key"":"" "",""event"":""keydown"",""t"":108583},{""key"":""r"",""event"":""keyup"",""t"":108623},{""key"":""b"",""event"":""keydown"",""t"":108704},{""key"":"" "",""event"":""keyup"",""t"":108727},{""key"":""u"",""event"":""keydown"",""t"":108783},{""key"":""b"",""event"":""keyup"",""t"":108807},{""key"":""t"",""event"":""keydown"",""t"":108887},{""key"":""u"",""event"":""keyup"",""t"":108903},{""key"":""t"",""event"":""keyup"",""t"":108943},{""key"":""t"",""event"":""keydown"",""t"":109015},{""key"":""o"",""event"":""keydown"",""t"":109095},{""key"":""m"",""event"":""keydown"",""t"":109160},{""key"":""t"",""event"":""keyup"",""t"":109176},{""key"":""o"",""event"":""keyup"",""t"":109255},{""key"":"" "",""event"":""keydown"",""t"":109296},{""key"":""m"",""event"":""keyup"",""t"":109319},{""key"":"" "",""event"":""keyup"",""t"":109415},{""key"":""d"",""event"":""keydown"",""t"":109439},{""key"":""o"",""event"":""keydown"",""t"":109496},{""key"":""d"",""event"":""keyup"",""t"":109519},{""key"":""e"",""event"":""keydown"",""t"":109575},{""key"":""s"",""event"":""keydown"",""t"":109615},{""key"":""o"",""event"":""keyup"",""t"":109639},{""key"":"" "",""event"":""keydown"",""t"":109695},{""key"":""e"",""event"":""keyup"",""t"":109719},{""key"":""s"",""event"":""keyup"",""t"":109759},{""key"":""n"",""event"":""keydown"",""t"":109776},{""key"":"" "",""event"":""keyup"",""t"":109839},{""key"":""o"",""event"":""keydown"",""t"":109855},{""key"":""n"",""event"":""keyup"",""t"":109919},{""key"":""t"",""event"":""keydown"",""t"":109935},{""key"":""o"",""event"":""keyup"",""t"":109975},{""key"":""h"",""event"":""keydown"",""t"":109999},{""key"":""i"",""event"":""keydown"",""t"":110079},{""key"":""t"",""event"":""keyup"",""t"":110095},{""key"":""h"",""event"":""keyup"",""t"":110135},{""key"":""n"",""event"":""keydown"",""t"":110200},{""key"":""g"",""event"":""keydown"",""t"":110255},{""key"":""i"",""event"":""keyup"",""t"":110319},{""key"":""n"",""event"":""keyup"",""t"":110335},{""key"":""g"",""event"":""keyup"",""t"":110375},{""key"":""Shift"",""event"":""keydown"",""t"":110423},{""key"":""!"",""event"":""keydown"",""t"":110567},{""key"":""!"",""event"":""keyup"",""t"":110687},{""key"":""Shift"",""event"":""keyup"",""t"":110983},{""key"":""Backspace"",""event"":""keydown"",""t"":111744},{""key"":""Backspace"",""event"":""keyup"",""t"":111839},{""key"":""."",""event"":""keydown"",""t"":111888},{""key"":""."",""event"":""keyup"",""t"":111951},{""key"":""."",""event"":""keydown"",""t"":112031},{""key"":""."",""event"":""keyup"",""t"":112095},{""key"":""."",""event"":""keydown"",""t"":112167},{""key"":""."",""event"":""keyup"",""t"":112247}]","[]"
"208437","","{""creativity-rating"":1,""creativity-free-response"":""Looks like a geometry dash clone in low budget? A pixel blob bouncing towards some basic shapes does not a game make. Also it was pretty much unplayable, so that was frustrating."",""originality-rating"":2,""originality-free-response"":""It's really hard to rate originality and aesthetics when I only saw the first screen of the game and couldn't get past it due to the controls not working. Dragging strips of a screen towards a bouncing object that then poofs and dies with no explanation was not fun. I tried many times in many different ways to interact with the controls and it just didn't work..."",""effectiveness-rating"":1,""effectiveness-free-response"":""As I mentioned previously, I was not able to enjoy the game as I couldn't even play it. The instructions were vague and unclear, and when I tried to follow them, nothing happened. Dragging parts of the screen did nothing. Sorry, I am a gamer and I can't see anything redeeming about this \""game\""."",""authenticity-rating"":1,""attention-check"":3,""intentionality-rating"":2,""authenticity-intentionality-free-response"":""It felt like a flash game that a kid in high school made from what brief parts I saw. Sorry but that is not a very impressive technical achievement. It was very simplistic, the controls didn't work, the game was unplayable due to the controls, so I can't give it much positive feedback sorry.""}","evaluation-gemini-4-substratum","survey","4","350184","0.0-4.0","69139019e887fef6bf369ea3","6987c292780adf01bb926159","69a7262c89117c17c48a90a6","","","","","","",""
"27335","","{""concept-creativity-rating"":3,""concept-implementation-rating"":1,""question1"":null}","concept-gemini-4-substratum","survey","5","377534","0.0-5.0","69139019e887fef6bf369ea3","6987c292780adf01bb926159","69a7262c89117c17c48a90a6","","","","","","",""
"2764","You have completed your evaluation of the first video game.<br><br>Press any key to proceed to the second game."," ","pre-game-two-message","html-keyboard-response","6","380299","0.0-6.0","69139019e887fef6bf369ea3","6987c292780adf01bb926159","69a7262c89117c17c48a90a6","","","","","","",""
"25778","","","game-gemini-3-suture","plugin-game-iframe","7","406083","0.0-7.0","69139019e887fef6bf369ea3","6987c292780adf01bb926159","69a7262c89117c17c48a90a6","game-complete","level 63/1","{""stage"":""level 63/1"",""detail"":{""levelIndex"":62,""levelNum"":63,""totalLevels"":1,""stitchesLeft"":3,""playerX"":755.9999999999982,""playerY"":390}}","{""result"":""win"",""levelsCompleted"":62}","null","[{""key"":"" "",""event"":""keyup"",""t"":55},{""key"":""ArrowRight"",""event"":""keydown"",""t"":11415},{""key"":""ArrowRight"",""event"":""keyup"",""t"":11671},{""key"":""ArrowLeft"",""event"":""keydown"",""t"":11815},{""key"":""ArrowLeft"",""event"":""keyup"",""t"":12071},{""key"":""ArrowUp"",""event"":""keydown"",""t"":12167},{""key"":""ArrowUp"",""event"":""keydown"",""t"":12681},{""key"":""ArrowUp"",""event"":""keydown"",""t"":12712},{""key"":""ArrowUp"",""event"":""keydown"",""t"":12743},{""key"":""ArrowUp"",""event"":""keydown"",""t"":12776},{""key"":""ArrowUp"",""event"":""keydown"",""t"":12805},{""key"":""ArrowUp"",""event"":""keydown"",""t"":12836},{""key"":""ArrowUp"",""event"":""keydown"",""t"":12867},{""key"":""ArrowUp"",""event"":""keydown"",""t"":12914},{""key"":""ArrowUp"",""event"":""keydown"",""t"":12944},{""key"":""ArrowUp"",""event"":""keydown"",""t"":12975},{""key"":""ArrowUp"",""event"":""keydown"",""t"":13006},{""key"":""ArrowUp"",""event"":""keydown"",""t"":13038},{""key"":""ArrowUp"",""event"":""keydown"",""t"":13069},{""key"":""ArrowUp"",""event"":""keydown"",""t"":13099},{""key"":""ArrowUp"",""event"":""keyup"",""t"":13103},{""key"":""ArrowRight"",""event"":""keydown"",""t"":13167},{""key"":""ArrowRight"",""event"":""keyup"",""t"":13207},{""key"":""ArrowRight"",""event"":""keydown"",""t"":13407},{""key"":""ArrowRight"",""event"":""keyup"",""t"":13487},{""key"":""ArrowRight"",""event"":""keydown"",""t"":14615},{""key"":""ArrowRight"",""event"":""keydown"",""t"":15119},{""key"":""ArrowRight"",""event"":""keydown"",""t"":15149},{""key"":""ArrowRight"",""event"":""keydown"",""t"":15195},{""key"":""ArrowRight"",""event"":""keydown"",""t"":15225},{""key"":""ArrowRight"",""event"":""keydown"",""t"":15257},{""key"":""ArrowUp"",""event"":""keydown"",""t"":15271},{""key"":""ArrowUp"",""event"":""keydown"",""t"":15774},{""key"":""ArrowUp"",""event"":""keydown"",""t"":15805},{""key"":""ArrowUp"",""event"":""keydown"",""t"":15852},{""key"":""ArrowUp"",""event"":""keydown"",""t"":15882},{""key"":""ArrowUp"",""event"":""keydown"",""t"":15914},{""key"":""ArrowUp"",""event"":""keydown"",""t"":15946},{""key"":""ArrowUp"",""event"":""keydown"",""t"":15977},{""key"":""ArrowUp"",""event"":""keydown"",""t"":16007},{""key"":""ArrowUp"",""event"":""keydown"",""t"":16038},{""key"":""ArrowUp"",""event"":""keydown"",""t"":16069},{""key"":""ArrowUp"",""event"":""keydown"",""t"":16117},{""key"":""ArrowUp"",""event"":""keydown"",""t"":16148},{""key"":""ArrowUp"",""event"":""keydown"",""t"":16179},{""key"":""ArrowUp"",""event"":""keydown"",""t"":16210},{""key"":""ArrowUp"",""event"":""keydown"",""t"":16240},{""key"":""ArrowUp"",""event"":""keydown"",""t"":16271},{""key"":""ArrowUp"",""event"":""keydown"",""t"":16303},{""key"":""ArrowUp"",""event"":""keydown"",""t"":16335},{""key"":""ArrowUp"",""event"":""keydown"",""t"":16380},{""key"":""ArrowUp"",""event"":""keydown"",""t"":16411},{""key"":""ArrowUp"",""event"":""keydown"",""t"":16442},{""key"":""ArrowUp"",""event"":""keydown"",""t"":16473},{""key"":""ArrowUp"",""event"":""keyup"",""t"":16495},{""key"":""ArrowRight"",""event"":""keyup"",""t"":16655},{""key"":""ArrowRight"",""event"":""keydown"",""t"":17055},{""key"":""ArrowUp"",""event"":""keydown"",""t"":17175},{""key"":""ArrowUp"",""event"":""keydown"",""t"":17687},{""key"":""ArrowUp"",""event"":""keydown"",""t"":17718},{""key"":""ArrowUp"",""event"":""keydown"",""t"":17751},{""key"":""ArrowUp"",""event"":""keydown"",""t"":17782},{""key"":""ArrowUp"",""event"":""keydown"",""t"":17812},{""key"":""ArrowUp"",""event"":""keydown"",""t"":17844},{""key"":""ArrowUp"",""event"":""keydown"",""t"":17876},{""key"":""ArrowUp"",""event"":""keydown"",""t"":17907},{""key"":""ArrowUp"",""event"":""keydown"",""t"":17953},{""key"":""ArrowUp"",""event"":""keydown"",""t"":17985},{""key"":""ArrowUp"",""event"":""keydown"",""t"":18016},{""key"":""ArrowUp"",""event"":""keydown"",""t"":18047},{""key"":""ArrowUp"",""event"":""keydown"",""t"":18079},{""key"":""ArrowUp"",""event"":""keydown"",""t"":18110},{""key"":""ArrowUp"",""event"":""keydown"",""t"":18142},{""key"":""ArrowUp"",""event"":""keydown"",""t"":18174},{""key"":""ArrowUp"",""event"":""keydown"",""t"":18205},{""key"":""ArrowUp"",""event"":""keydown"",""t"":18236},{""key"":""ArrowUp"",""event"":""keydown"",""t"":18283},{""key"":""ArrowUp"",""event"":""keydown"",""t"":18314},{""key"":""ArrowUp"",""event"":""keydown"",""t"":18344},{""key"":""ArrowUp"",""event"":""keydown"",""t"":18375},{""key"":""ArrowUp"",""event"":""keydown"",""t"":18407},{""key"":""ArrowUp"",""event"":""keydown"",""t"":18437},{""key"":""ArrowUp"",""event"":""keydown"",""t"":18468},{""key"":""ArrowUp"",""event"":""keydown"",""t"":18514},{""key"":""ArrowUp"",""event"":""keydown"",""t"":18545},{""key"":""ArrowUp"",""event"":""keydown"",""t"":18577},{""key"":""ArrowUp"",""event"":""keydown"",""t"":18609},{""key"":""ArrowUp"",""event"":""keydown"",""t"":18640},{""key"":""ArrowUp"",""event"":""keydown"",""t"":18672},{""key"":""ArrowUp"",""event"":""keydown"",""t"":18703},{""key"":""ArrowUp"",""event"":""keydown"",""t"":18735},{""key"":""ArrowUp"",""event"":""keydown"",""t"":18765},{""key"":""ArrowUp"",""event"":""keyup"",""t"":18807},{""key"":""ArrowRight"",""event"":""keyup"",""t"":19351},{""key"":""ArrowRight"",""event"":""keydown"",""t"":20231},{""key"":""ArrowRight"",""event"":""keyup"",""t"":20351},{""key"":""ArrowLeft"",""event"":""keydown"",""t"":20471},{""key"":""ArrowLeft"",""event"":""keyup"",""t"":20927},{""key"":""ArrowRight"",""event"":""keydown"",""t"":21735},{""key"":""ArrowRight"",""event"":""keyup"",""t"":22079},{""key"":""Enter"",""event"":""keydown"",""t"":25775}]","[]"
"215870","","{""creativity-rating"":1,""creativity-free-response"":""What the heck? I jumped a square across a couple of games to the green square, then everything went dark and it auto directed me to this questionnaire. I barely played for 15 seconds... What was the cutting? What was the mouse used for dragging those lines? This does not seem like the intended path... But from what I saw that was another basic flash game with no originality."",""originality-rating"":1,""originality-free-response"":""It was a flash game where I jumped a small cube twice over a couple gaps to a different cube. Then the game ended. That surprised me because it was so short. None of this felt original at all. A child could have developed it."",""effectiveness-rating"":2,""effectiveness-free-response"":""More enjoyable than the first game which I couldn't even play. This one at least let me jump two whole gaps! What is the purpose of making players test a game that is one level long and that a 4 year old could do? Not sure what data I can provide but yeah great job with the flash game."",""authenticity-rating"":1,""attention-check"":3,""intentionality-rating"":1,""authenticity-intentionality-free-response"":""A simplistic cube jumping game is neither authentic, intentional, nor shows any real effort. I completed a single level and that was it. It never even explained any of the other mechanics of the game like what I was supposed to cut. 0/10 rating for this one sorry guys...""}","evaluation-gemini-3-suture","survey","8","621973","0.0-8.0","69139019e887fef6bf369ea3","6987c292780adf01bb926159","69a7262c89117c17c48a90a6","","","","","","",""
"17045","","{""concept-creativity-rating"":3,""concept-implementation-rating"":1,""question1"":null}","concept-gemini-3-suture","survey","9","639032","0.0-9.0","69139019e887fef6bf369ea3","6987c292780adf01bb926159","69a7262c89117c17c48a90a6","","","","","","",""
"2562","You have completed your evaluation of the second video game.<br><br>Press any key to proceed to the final game."," ","pre-game-three-message","html-keyboard-response","10","641594","0.0-10.0","69139019e887fef6bf369ea3","6987c292780adf01bb926159","69a7262c89117c17c48a90a6","","","","","","",""
"189160","","","game-claude-3-bureaucromancer","plugin-game-iframe","11","830760","0.0-11.0","69139019e887fef6bf369ea3","6987c292780adf01bb926159","69a7262c89117c17c48a90a6","game-complete","end:win","{""stage"":""end:win"",""detail"":{""won"":true,""score"":null,""casesProcessed"":22}}","{""result"":""win"",""score"":230,""casesProcessed"":22,""casesCorrect"":17,""casesMisfiled"":5,""bestStreak"":10,""dragonCorrect"":true}","null","[{""key"":"" "",""event"":""keyup"",""t"":95},{""key"":""a"",""event"":""keydown"",""t"":41935},{""key"":""a"",""event"":""keyup"",""t"":42119},{""key"":""a"",""event"":""keydown"",""t"":45455},{""key"":""a"",""event"":""keyup"",""t"":45631},{""key"":""a"",""event"":""keydown"",""t"":49327},{""key"":""a"",""event"":""keyup"",""t"":49487},{""key"":""a"",""event"":""keydown"",""t"":52175},{""key"":""a"",""event"":""keyup"",""t"":52352},{""key"":""r"",""event"":""keydown"",""t"":63855},{""key"":""r"",""event"":""keyup"",""t"":64015},{""key"":""a"",""event"":""keydown"",""t"":68239},{""key"":""a"",""event"":""keyup"",""t"":68464},{""key"":""r"",""event"":""keydown"",""t"":71383},{""key"":""r"",""event"":""keyup"",""t"":71503},{""key"":""r"",""event"":""keydown"",""t"":74647},{""key"":""r"",""event"":""keyup"",""t"":74783},{""key"":""a"",""event"":""keydown"",""t"":77655},{""key"":""a"",""event"":""keyup"",""t"":77839},{""key"":""s"",""event"":""keydown"",""t"":94047},{""key"":""s"",""event"":""keyup"",""t"":94191},{""key"":""d"",""event"":""keydown"",""t"":95215},{""key"":""d"",""event"":""keyup"",""t"":95375},{""key"":""d"",""event"":""keydown"",""t"":99871},{""key"":""d"",""event"":""keyup"",""t"":100055},{""key"":""a"",""event"":""keydown"",""t"":110967},{""key"":""a"",""event"":""keyup"",""t"":111207},{""key"":""a"",""event"":""keydown"",""t"":118423},{""key"":""a"",""event"":""keyup"",""t"":118663},{""key"":""d"",""event"":""keydown"",""t"":125303},{""key"":""d"",""event"":""keyup"",""t"":125487},{""key"":""d"",""event"":""keydown"",""t"":128823},{""key"":""d"",""event"":""keyup"",""t"":129007},{""key"":""d"",""event"":""keydown"",""t"":140735},{""key"":""d"",""event"":""keyup"",""t"":140911},{""key"":""t"",""event"":""keydown"",""t"":145239},{""key"":""t"",""event"":""keyup"",""t"":145383},{""key"":""t"",""event"":""keydown"",""t"":145847},{""key"":""t"",""event"":""keyup"",""t"":146087},{""key"":""r"",""event"":""keydown"",""t"":146967},{""key"":""r"",""event"":""keyup"",""t"":147103},{""key"":""d"",""event"":""keydown"",""t"":153023},{""key"":""d"",""event"":""keyup"",""t"":153183},{""key"":""a"",""event"":""keydown"",""t"":158063},{""key"":""a"",""event"":""keyup"",""t"":158279},{""key"":""d"",""event"":""keydown"",""t"":164015},{""key"":""d"",""event"":""keyup"",""t"":164207},{""key"":""a"",""event"":""keydown"",""t"":167231},{""key"":""a"",""event"":""keyup"",""t"":167431},{""key"":""a"",""event"":""keydown"",""t"":177887},{""key"":""a"",""event"":""keyup"",""t"":178103},{""key"":""Enter"",""event"":""keydown"",""t"":189159}]","[]"
"184383","","{""creativity-rating"":4,""creativity-free-response"":""Compared to the first two games, this one actually had a unique concept I haven't played in a game before. I felt like King Yemma from dragon ball z deciding the fate of souls passing through the afterlife or something. It was cool and despite being way too difficult and a short timer, I had fun."",""originality-rating"":3,""originality-free-response"":""The concept was unique and enjoyable. The gameplay left something to be desired. Mechanics of reading that many rules and quickly trying to determine the correct answer was difficult. The text was also kind of small, and the timer was way too short."",""effectiveness-rating"":3,""effectiveness-free-response"":""I was able to actually play this one like a game, so I give it a higher rating. It wasn't supremely entertaining or gripping, but at least it held my attention and felt like I was actually playing a game. The timer was too quick so that was frustrating, and then the conflicting rules all changing rapidly and not giving me time to review or read was also tough."",""authenticity-rating"":4,""attention-check"":3,""intentionality-rating"":3,""authenticity-intentionality-free-response"":""It felt like this one actually had a good idea behind it and was built out into a proper game. Rather than immediately redirecting me, or crashing out, the controls all worked, and the game was playable to the end. I enjoyed this one much more for the effort put into it.""}","evaluation-claude-3-bureaucromancer","survey","12","1015166","0.0-12.0","69139019e887fef6bf369ea3","6987c292780adf01bb926159","69a7262c89117c17c48a90a6","","","","","","",""
"12233","","{""concept-creativity-rating"":4,""concept-implementation-rating"":4,""question1"":null}","concept-claude-3-bureaucromancer","survey","13","1027413","0.0-13.0","69139019e887fef6bf369ea3","6987c292780adf01bb926159","69a7262c89117c17c48a90a6","","","","","","",""
"2420","You have completed all of the games!<br><br>Press any key to proceed to some final questions before returning to Prolific."," ","pre-baseline-questions","html-keyboard-response","14","1029833","0.0-14.0","69139019e887fef6bf369ea3","6987c292780adf01bb926159","69a7262c89117c17c48a90a6","","","","","","",""
"15436","","{""baseline_originality_rating"":4,""baseline_effectiveness_rating"":5,""baseline_authenticity_rating"":4,""baseline_intentionality_rating"":4}","baseline-questions-rating","survey","15","1045281","0.0-15.0","69139019e887fef6bf369ea3","6987c292780adf01bb926159","69a7262c89117c17c48a90a6","","","","","","",""
"32404","","{""ai_blind_question"":""Perhaps I would've been even more critical of the broken game mechanics in the first two games, but no generally everything I said still applies.""}","ai-blind-question","survey","16","1077691","0.0-16.0","69139019e887fef6bf369ea3","6987c292780adf01bb926159","69a7262c89117c17c48a90a6","","","","","","",""
"4550","
        <p> You have completed the experiment! Press any key to save your data and get redirected back to Prolific. <strong>Please do not close the page until you have been redirected to Prolific.</strong> <p>
      "," ","goodbye","html-keyboard-response","17","1082241","0.0-17.0","69139019e887fef6bf369ea3","6987c292780adf01bb926159","69a7262c89117c17c48a90a6","","","","","","",""
