"rt","stimulus","response","phase","trial_type","trial_index","time_elapsed","internal_node_id","prolific_subject_id","study_id","session_id","exit_reason","exit_stage","exit_progress","game_data","emergency_text","keystrokes","mouse_events"
"15140","Welcome!<br><br>In this study, you will play three short video games that were generated by Artificial Intelligence (AI) and complete a short survey after each game.<br><br>Please make sure you are in a quiet environment where you can focus for the duration of the study. Some games may use sound, so please ensure that your device's volume is not muted.<br><br>Press any key to begin.","enter","welcome-message","html-keyboard-response","0","15169","0.0-0.0","6987fbc16603cc742ebec4ec","6987c292780adf01bb926159","69a4dab776b046af9b3ebe73","","","","","","",""
"9129","","{""commitment-check"":[""yes""]}","commitment-check","survey","1","24330","0.0-1.0","6987fbc16603cc742ebec4ec","6987c292780adf01bb926159","69a4dab776b046af9b3ebe73","","","","","","",""
"1723","Press any key to proceed to the first video game. Should you encounter a game-breaking bug, please report the issue in the Menu tab to the right of the screen.","shift","pre-game-one-message","html-keyboard-response","2","26055","0.0-2.0","6987fbc16603cc742ebec4ec","6987c292780adf01bb926159","69a4dab776b046af9b3ebe73","","","","","","",""
"305525","","","game-chat-2-murmuration","plugin-game-iframe","3","331582","0.0-3.0","6987fbc16603cc742ebec4ec","6987c292780adf01bb926159","69a4dab776b046af9b3ebe73","emergency-exit","roost","{""stage"":""roost"",""detail"":{""segmentIndex"":3,""gameState"":""PLAYING"",""gateState"":{""gate1Open"":true,""gate2Open"":true,""gate3Open"":true,""gate1Count"":25,""gate2Hold"":0.801926000000003,""gate3Hold"":1.5012740000002023}}}","null","so in this game i m suppose to go to a targeted location but when ever i m at this location it doesnot load or do anything","[{""key"":""Shift"",""event"":""keyup"",""t"":93},{""key"":"" "",""event"":""keydown"",""t"":8295},{""key"":"" "",""event"":""keyup"",""t"":8395},{""key"":""ArrowLeft"",""event"":""keydown"",""t"":12158},{""key"":""ArrowLeft"",""event"":""keydown"",""t"":12421},{""key"":""ArrowLeft"",""event"":""keydown"",""t"":12452},{""key"":""ArrowLeft"",""event"":""keydown"",""t"":12485},{""key"":""ArrowLeft"",""event"":""keydown"",""t"":12519},{""key"":""ArrowLeft"",""event"":""keydown"",""t"":12543},{""key"":""ArrowLeft"",""event"":""keydown"",""t"":12575},{""key"":""ArrowLeft"",""event"":""keydown"",""t"":12606},{""key"":""ArrowLeft"",""event"":""keyup"",""t"":12612},{""key"":""a"",""event"":""keydown"",""t"":13205},{""key"":""a"",""event"":""keydown"",""t"":13456},{""key"":""a"",""event"":""keydown"",""t"":13495},{""key"":""a"",""event"":""keydown"",""t"":13534},{""key"":""a"",""event"":""keydown"",""t"":13564},{""key"":""a"",""event"":""keydown"",""t"":13596},{""key"":""a"",""event"":""keydown"",""t"":13627},{""key"":""a"",""event"":""keydown"",""t"":13656},{""key"":""a"",""event"":""keydown"",""t"":13688},{""key"":""a"",""event"":""keydown"",""t"":13720},{""key"":""a"",""event"":""keydown"",""t"":13770},{""key"":""a"",""event"":""keyup"",""t"":13772},{""key"":""s"",""event"":""keydown"",""t"":269696},{""key"":""s"",""event"":""keyup"",""t"":269836},{""key"":""o"",""event"":""keydown"",""t"":269844},{""key"":""o"",""event"":""keyup"",""t"":269965},{""key"":"" "",""event"":""keydown"",""t"":270766},{""key"":"" "",""event"":""keyup"",""t"":270885},{""key"":""i"",""event"":""keydown"",""t"":271166},{""key"":""i"",""event"":""keyup"",""t"":271237},{""key"":""n"",""event"":""keydown"",""t"":271405},{""key"":""n"",""event"":""keyup"",""t"":271517},{""key"":"" "",""event"":""keydown"",""t"":271519},{""key"":"" "",""event"":""keyup"",""t"":271638},{""key"":""t"",""event"":""keydown"",""t"":271695},{""key"":""t"",""event"":""keyup"",""t"":271774},{""key"":""h"",""event"":""keydown"",""t"":271910},{""key"":""h"",""event"":""keyup"",""t"":272004},{""key"":""i"",""event"":""keydown"",""t"":272125},{""key"":""s"",""event"":""keydown"",""t"":272254},{""key"":""i"",""event"":""keyup"",""t"":272269},{""key"":""s"",""event"":""keyup"",""t"":272333},{""key"":"" "",""event"":""keydown"",""t"":272384},{""key"":"" "",""event"":""keyup"",""t"":272534},{""key"":""g"",""event"":""keydown"",""t"":272574},{""key"":""g"",""event"":""keyup"",""t"":272669},{""key"":""a"",""event"":""keydown"",""t"":272758},{""key"":""a"",""event"":""keyup"",""t"":272885},{""key"":""m"",""event"":""keydown"",""t"":272894},{""key"":""m"",""event"":""keyup"",""t"":272997},{""key"":""e"",""event"":""keydown"",""t"":273038},{""key"":""e"",""event"":""keyup"",""t"":273139},{""key"":"" "",""event"":""keydown"",""t"":273148},{""key"":"" "",""event"":""keyup"",""t"":273251},{""key"":"" "",""event"":""keydown"",""t"":273693},{""key"":"" "",""event"":""keyup"",""t"":273737},{""key"":""Backspace"",""event"":""keydown"",""t"":274342},{""key"":""Backspace"",""event"":""keyup"",""t"":274525},{""key"":""i"",""event"":""keydown"",""t"":274997},{""key"":""i"",""event"":""keyup"",""t"":275122},{""key"":"" "",""event"":""keydown"",""t"":275150},{""key"":"" "",""event"":""keyup"",""t"":275253},{""key"":""m"",""event"":""keydown"",""t"":275300},{""key"":""m"",""event"":""keyup"",""t"":275411},{""key"":"" "",""event"":""keydown"",""t"":275435},{""key"":"" "",""event"":""keyup"",""t"":275516},{""key"":""s"",""event"":""keydown"",""t"":275657},{""key"":""s"",""event"":""keyup"",""t"":275766},{""key"":""u"",""event"":""keydown"",""t"":275846},{""key"":""u"",""event"":""keyup"",""t"":275925},{""key"":""p"",""event"":""keydown"",""t"":276166},{""key"":""p"",""event"":""keyup"",""t"":276257},{""key"":""p"",""event"":""keydown"",""t"":276341},{""key"":""p"",""event"":""keyup"",""t"":276407},{""key"":""o"",""event"":""keydown"",""t"":276477},{""key"":""o"",""event"":""keyup"",""t"":276565},{""key"":""s"",""event"":""keydown"",""t"":276612},{""key"":""s"",""event"":""keyup"",""t"":276709},{""key"":""e"",""event"":""keydown"",""t"":276855},{""key"":""e"",""event"":""keyup"",""t"":276933},{""key"":"" "",""event"":""keydown"",""t"":276981},{""key"":"" "",""event"":""keyup"",""t"":277061},{""key"":""t"",""event"":""keydown"",""t"":277127},{""key"":""t"",""event"":""keyup"",""t"":277209},{""key"":""o"",""event"":""keydown"",""t"":277270},{""key"":""o"",""event"":""keyup"",""t"":277360},{""key"":"" "",""event"":""keydown"",""t"":277361},{""key"":"" "",""event"":""keyup"",""t"":277484},{""key"":""g"",""event"":""keydown"",""t"":277780},{""key"":""g"",""event"":""keyup"",""t"":277853},{""key"":""o"",""event"":""keydown"",""t"":277933},{""key"":""o"",""event"":""keyup"",""t"":278030},{""key"":"" "",""event"":""keydown"",""t"":278144},{""key"":"" "",""event"":""keyup"",""t"":278269},{""key"":""t"",""event"":""keydown"",""t"":278413},{""key"":""t"",""event"":""keyup"",""t"":278496},{""key"":""o"",""event"":""keydown"",""t"":278545},{""key"":""o"",""event"":""keyup"",""t"":278628},{""key"":"" "",""event"":""keydown"",""t"":278644},{""key"":"" "",""event"":""keyup"",""t"":278725},{""key"":""a"",""event"":""keydown"",""t"":278881},{""key"":""a"",""event"":""keyup"",""t"":278973},{""key"":"" "",""event"":""keydown"",""t"":279047},{""key"":"" "",""event"":""keyup"",""t"":279129},{""key"":""t"",""event"":""keydown"",""t"":279214},{""key"":""t"",""event"":""keyup"",""t"":279317},{""key"":""a"",""event"":""keydown"",""t"":279646},{""key"":""a"",""event"":""keyup"",""t"":279782},{""key"":""r"",""event"":""keydown"",""t"":279897},{""key"":""r"",""event"":""keyup"",""t"":280006},{""key"":""g"",""event"":""keydown"",""t"":280254},{""key"":""g"",""event"":""keyup"",""t"":280333},{""key"":""e"",""event"":""keydown"",""t"":280525},{""key"":""e"",""event"":""keyup"",""t"":280613},{""key"":""t"",""event"":""keydown"",""t"":280726},{""key"":""t"",""event"":""keyup"",""t"":280806},{""key"":""e"",""event"":""keydown"",""t"":280894},{""key"":""e"",""event"":""keyup"",""t"":280949},{""key"":""d"",""event"":""keydown"",""t"":281126},{""key"":""d"",""event"":""keyup"",""t"":281200},{""key"":"" "",""event"":""keydown"",""t"":281276},{""key"":"" "",""event"":""keyup"",""t"":281367},{""key"":""l"",""event"":""keydown"",""t"":282157},{""key"":""l"",""event"":""keyup"",""t"":282238},{""key"":""o"",""event"":""keydown"",""t"":282353},{""key"":""o"",""event"":""keyup"",""t"":282429},{""key"":""c"",""event"":""keydown"",""t"":283085},{""key"":""c"",""event"":""keyup"",""t"":283166},{""key"":""a"",""event"":""keydown"",""t"":283278},{""key"":""a"",""event"":""keyup"",""t"":283389},{""key"":""t"",""event"":""keydown"",""t"":283558},{""key"":""t"",""event"":""keyup"",""t"":283676},{""key"":""i"",""event"":""keydown"",""t"":283718},{""key"":""i"",""event"":""keyup"",""t"":283805},{""key"":""o"",""event"":""keydown"",""t"":283925},{""key"":""o"",""event"":""keyup"",""t"":284006},{""key"":""n"",""event"":""keydown"",""t"":284122},{""key"":""n"",""event"":""keyup"",""t"":284222},{""key"":"" "",""event"":""keydown"",""t"":284230},{""key"":"" "",""event"":""keyup"",""t"":284340},{""key"":""b"",""event"":""keydown"",""t"":284430},{""key"":""b"",""event"":""keyup"",""t"":284533},{""key"":""u"",""event"":""keydown"",""t"":284639},{""key"":""u"",""event"":""keyup"",""t"":284749},{""key"":""t"",""event"":""keydown"",""t"":284841},{""key"":""t"",""event"":""keyup"",""t"":284909},{""key"":"" "",""event"":""keydown"",""t"":284989},{""key"":"" "",""event"":""keyup"",""t"":285093},{""key"":""w"",""event"":""keydown"",""t"":285245},{""key"":""w"",""event"":""keyup"",""t"":285376},{""key"":""h"",""event"":""keydown"",""t"":285961},{""key"":""h"",""event"":""keyup"",""t"":286054},{""key"":""e"",""event"":""keydown"",""t"":286111},{""key"":""e"",""event"":""keyup"",""t"":286192},{""key"":""n"",""event"":""keydown"",""t"":286254},{""key"":""n"",""event"":""keyup"",""t"":286361},{""key"":"" "",""event"":""keydown"",""t"":286361},{""key"":"" "",""event"":""keyup"",""t"":286461},{""key"":""e"",""event"":""keydown"",""t"":286582},{""key"":""e"",""event"":""keyup"",""t"":286685},{""key"":""v"",""event"":""keydown"",""t"":286779},{""key"":""v"",""event"":""keyup"",""t"":286868},{""key"":""e"",""event"":""keydown"",""t"":286900},{""key"":""e"",""event"":""keyup"",""t"":286989},{""key"":""r"",""event"":""keydown"",""t"":287117},{""key"":""r"",""event"":""keyup"",""t"":287197},{""key"":"" "",""event"":""keydown"",""t"":287279},{""key"":"" "",""event"":""keyup"",""t"":287381},{""key"":""i"",""event"":""keydown"",""t"":288247},{""key"":""i"",""event"":""keyup"",""t"":288349},{""key"":"" "",""event"":""keydown"",""t"":288414},{""key"":"" "",""event"":""keyup"",""t"":288541},{""key"":""m"",""event"":""keydown"",""t"":289142},{""key"":""m"",""event"":""keyup"",""t"":289254},{""key"":"" "",""event"":""keydown"",""t"":289310},{""key"":"" "",""event"":""keyup"",""t"":289406},{""key"":""a"",""event"":""keydown"",""t"":289501},{""key"":""a"",""event"":""keyup"",""t"":289621},{""key"":""t"",""event"":""keydown"",""t"":289653},{""key"":""t"",""event"":""keyup"",""t"":289758},{""key"":"" "",""event"":""keydown"",""t"":289801},{""key"":"" "",""event"":""keyup"",""t"":289901},{""key"":""t"",""event"":""keydown"",""t"":289958},{""key"":""t"",""event"":""keyup"",""t"":290046},{""key"":""h"",""event"":""keydown"",""t"":290201},{""key"":""h"",""event"":""keyup"",""t"":290286},{""key"":""i"",""event"":""keydown"",""t"":290406},{""key"":""i"",""event"":""keyup"",""t"":290525},{""key"":""s"",""event"":""keydown"",""t"":290549},{""key"":""s"",""event"":""keyup"",""t"":290630},{""key"":"" "",""event"":""keydown"",""t"":290736},{""key"":"" "",""event"":""keyup"",""t"":290837},{""key"":""l"",""event"":""keydown"",""t"":291142},{""key"":""l"",""event"":""keyup"",""t"":291237},{""key"":""o"",""event"":""keydown"",""t"":291358},{""key"":""o"",""event"":""keyup"",""t"":291461},{""key"":""c"",""event"":""keydown"",""t"":291614},{""key"":""c"",""event"":""keyup"",""t"":291653},{""key"":""a"",""event"":""keydown"",""t"":291766},{""key"":""a"",""event"":""keyup"",""t"":291872},{""key"":""t"",""event"":""keydown"",""t"":292005},{""key"":""t"",""event"":""keyup"",""t"":292092},{""key"":""i"",""event"":""keydown"",""t"":292172},{""key"":""i"",""event"":""keyup"",""t"":292262},{""key"":""o"",""event"":""keydown"",""t"":292376},{""key"":""o"",""event"":""keyup"",""t"":292468},{""key"":""n"",""event"":""keydown"",""t"":292565},{""key"":""n"",""event"":""keyup"",""t"":292670},{""key"":"" "",""event"":""keydown"",""t"":292693},{""key"":"" "",""event"":""keyup"",""t"":292781},{""key"":""i"",""event"":""keydown"",""t"":294255},{""key"":""i"",""event"":""keyup"",""t"":294366},{""key"":""t"",""event"":""keydown"",""t"":294862},{""key"":""t"",""event"":""keyup"",""t"":294948},{""key"":"" "",""event"":""keydown"",""t"":295102},{""key"":"" "",""event"":""keyup"",""t"":295237},{""key"":""d"",""event"":""keydown"",""t"":295637},{""key"":""d"",""event"":""keyup"",""t"":295766},{""key"":""o"",""event"":""keydown"",""t"":295885},{""key"":""o"",""event"":""keyup"",""t"":295982},{""key"":""e"",""event"":""keydown"",""t"":296046},{""key"":""e"",""event"":""keyup"",""t"":296134},{""key"":""s"",""event"":""keydown"",""t"":296264},{""key"":""s"",""event"":""keyup"",""t"":296388},{""key"":""n"",""event"":""keydown"",""t"":296430},{""key"":""n"",""event"":""keyup"",""t"":296529},{""key"":""o"",""event"":""keydown"",""t"":296613},{""key"":""o"",""event"":""keyup"",""t"":296748},{""key"":""t"",""event"":""keydown"",""t"":296773},{""key"":""t"",""event"":""keyup"",""t"":296863},{""key"":"" "",""event"":""keydown"",""t"":296957},{""key"":"" "",""event"":""keyup"",""t"":297060},{""key"":""l"",""event"":""keydown"",""t"":297286},{""key"":""l"",""event"":""keyup"",""t"":297398},{""key"":""o"",""event"":""keydown"",""t"":297517},{""key"":""o"",""event"":""keyup"",""t"":297621},{""key"":""a"",""event"":""keydown"",""t"":297662},{""key"":""a"",""event"":""keyup"",""t"":297757},{""key"":""d"",""event"":""keydown"",""t"":297879},{""key"":""d"",""event"":""keyup"",""t"":297909},{""key"":"" "",""event"":""keydown"",""t"":298016},{""key"":"" "",""event"":""keyup"",""t"":298110},{""key"":""o"",""event"":""keydown"",""t"":298502},{""key"":""o"",""event"":""keyup"",""t"":298617},{""key"":""r"",""event"":""keydown"",""t"":298941},{""key"":""r"",""event"":""keyup"",""t"":299021},{""key"":"" "",""event"":""keydown"",""t"":299118},{""key"":"" "",""event"":""keyup"",""t"":299229},{""key"":""d"",""event"":""keydown"",""t"":299422},{""key"":""d"",""event"":""keyup"",""t"":299493},{""key"":""o"",""event"":""keydown"",""t"":299553},{""key"":"" "",""event"":""keydown"",""t"":299662},{""key"":""o"",""event"":""keyup"",""t"":299671},{""key"":"" "",""event"":""keyup"",""t"":299741},{""key"":""a"",""event"":""keydown"",""t"":299941},{""key"":""a"",""event"":""keyup"",""t"":300052},{""key"":""n"",""event"":""keydown"",""t"":300135},{""key"":""n"",""event"":""keyup"",""t"":300260},{""key"":""y"",""event"":""keydown"",""t"":300765},{""key"":""y"",""event"":""keyup"",""t"":300877},{""key"":""t"",""event"":""keydown"",""t"":301039},{""key"":""t"",""event"":""keyup"",""t"":301149},{""key"":""h"",""event"":""keydown"",""t"":301214},{""key"":""h"",""event"":""keyup"",""t"":301341},{""key"":""i"",""event"":""keydown"",""t"":301382},{""key"":""i"",""event"":""keyup"",""t"":301516},{""key"":""n"",""event"":""keydown"",""t"":301613},{""key"":""n"",""event"":""keyup"",""t"":301773},{""key"":""g"",""event"":""keydown"",""t"":301807},{""key"":""g"",""event"":""keyup"",""t"":301909}]","[]"
"375663","","{""creativity-rating"":4,""creativity-free-response"":""its a creative game with a good idea but there is some problems. and one of them the slow game play and the bad controls . calling and scattering the birds is a good idea. but the flaws in the game code make the game not that great"",""originality-free-response"":""its more than original. it has an idea. a relaxing game that about calling birds and scattering them. maybe if there are more ideas . the game will be more unique"",""originality-rating"":5,""effectiveness-free-response"":""i enjoyed the idea of a relaxing game that makes you call birds.but there is one major flaw the slow movement, and there is no sound or music makes it bare bones. it needs a new ideas "",""effectiveness-rating"":3,""authenticity-rating"":5,""attention-check"":3,""intentionality-rating"":5,""authenticity-intentionality-free-response"":""the game has an idea that are different from other games.i was working in game testing and rating before and i say this game is so far one of the most original and genuine game without riping off any other games ""}","evaluation-chat-2-murmuration","survey","4","707317","0.0-4.0","6987fbc16603cc742ebec4ec","6987c292780adf01bb926159","69a4dab776b046af9b3ebe73","","","","","","",""
"30332","","{""concept-creativity-rating"":4,""concept-implementation-rating"":4,""question1"":null}","concept-chat-2-murmuration","survey","5","737675","0.0-5.0","6987fbc16603cc742ebec4ec","6987c292780adf01bb926159","69a4dab776b046af9b3ebe73","","","","","","",""
"2314","You have completed your evaluation of the first video game.<br><br>Press any key to proceed to the second game."," ","pre-game-two-message","html-keyboard-response","6","739991","0.0-6.0","6987fbc16603cc742ebec4ec","6987c292780adf01bb926159","69a4dab776b046af9b3ebe73","","","","","","",""
"49054","","","game-gemini-5-rename","plugin-game-iframe","7","789047","0.0-7.0","6987fbc16603cc742ebec4ec","6987c292780adf01bb926159","69a4dab776b046af9b3ebe73","game-complete","exit-distance 620","{""stage"":""exit-distance 620"",""detail"":{""wallZipExtension"":"".ghost"",""hazardExtension"":"".fire"",""playerBurning"":false,""isTyping"":false,""distanceToExit"":620}}","{""result"":""win""}","null","[{""key"":"" "",""event"":""keyup"",""t"":53},{""key"":""ArrowRight"",""event"":""keydown"",""t"":2519},{""key"":""ArrowRight"",""event"":""keydown"",""t"":2772},{""key"":""ArrowRight"",""event"":""keydown"",""t"":2801},{""key"":""ArrowRight"",""event"":""keydown"",""t"":2847},{""key"":""ArrowRight"",""event"":""keydown"",""t"":2874},{""key"":""ArrowRight"",""event"":""keydown"",""t"":2902},{""key"":""ArrowRight"",""event"":""keydown"",""t"":2934},{""key"":""ArrowRight"",""event"":""keydown"",""t"":2965},{""key"":""ArrowRight"",""event"":""keydown"",""t"":3010},{""key"":""ArrowRight"",""event"":""keydown"",""t"":3040},{""key"":""ArrowRight"",""event"":""keydown"",""t"":3070},{""key"":""ArrowRight"",""event"":""keydown"",""t"":3101},{""key"":""ArrowRight"",""event"":""keydown"",""t"":3133},{""key"":""ArrowRight"",""event"":""keydown"",""t"":3174},{""key"":""ArrowRight"",""event"":""keydown"",""t"":3202},{""key"":""ArrowRight"",""event"":""keydown"",""t"":3233},{""key"":""ArrowRight"",""event"":""keydown"",""t"":3270},{""key"":""ArrowRight"",""event"":""keydown"",""t"":3302},{""key"":""ArrowRight"",""event"":""keydown"",""t"":3340},{""key"":""ArrowRight"",""event"":""keydown"",""t"":3368},{""key"":""ArrowRight"",""event"":""keydown"",""t"":3407},{""key"":""ArrowRight"",""event"":""keyup"",""t"":3419},{""key"":""ArrowLeft"",""event"":""keydown"",""t"":3622},{""key"":""ArrowLeft"",""event"":""keydown"",""t"":3882},{""key"":""ArrowLeft"",""event"":""keydown"",""t"":3912},{""key"":""ArrowLeft"",""event"":""keydown"",""t"":3941},{""key"":""ArrowLeft"",""event"":""keydown"",""t"":3986},{""key"":""ArrowLeft"",""event"":""keydown"",""t"":4018},{""key"":""ArrowLeft"",""event"":""keydown"",""t"":4044},{""key"":""ArrowLeft"",""event"":""keydown"",""t"":4075},{""key"":""ArrowLeft"",""event"":""keydown"",""t"":4104},{""key"":""ArrowLeft"",""event"":""keydown"",""t"":4152},{""key"":""ArrowLeft"",""event"":""keydown"",""t"":4178},{""key"":""ArrowLeft"",""event"":""keydown"",""t"":4209},{""key"":""ArrowLeft"",""event"":""keydown"",""t"":4241},{""key"":""ArrowLeft"",""event"":""keydown"",""t"":4271},{""key"":""ArrowLeft"",""event"":""keydown"",""t"":4318},{""key"":""ArrowLeft"",""event"":""keydown"",""t"":4345},{""key"":""ArrowLeft"",""event"":""keyup"",""t"":4368},{""key"":"" "",""event"":""keydown"",""t"":5861},{""key"":"" "",""event"":""keyup"",""t"":5957},{""key"":""ArrowRight"",""event"":""keydown"",""t"":6656},{""key"":""ArrowRight"",""event"":""keydown"",""t"":6906},{""key"":""ArrowRight"",""event"":""keydown"",""t"":6939},{""key"":""ArrowRight"",""event"":""keydown"",""t"":6969},{""key"":""ArrowRight"",""event"":""keyup"",""t"":6973},{""key"":""ArrowRight"",""event"":""keydown"",""t"":7024},{""key"":"" "",""event"":""keydown"",""t"":7199},{""key"":"" "",""event"":""keydown"",""t"":7452},{""key"":"" "",""event"":""keydown"",""t"":7484},{""key"":"" "",""event"":""keydown"",""t"":7518},{""key"":"" "",""event"":""keydown"",""t"":7550},{""key"":""ArrowRight"",""event"":""keyup"",""t"":7582},{""key"":"" "",""event"":""keyup"",""t"":7606},{""key"":""ArrowLeft"",""event"":""keydown"",""t"":7610},{""key"":""ArrowLeft"",""event"":""keydown"",""t"":7861},{""key"":""ArrowLeft"",""event"":""keydown"",""t"":7888},{""key"":""ArrowLeft"",""event"":""keydown"",""t"":7932},{""key"":""ArrowUp"",""event"":""keydown"",""t"":7950},{""key"":""ArrowUp"",""event"":""keydown"",""t"":8215},{""key"":""ArrowUp"",""event"":""keydown"",""t"":8246},{""key"":""ArrowUp"",""event"":""keydown"",""t"":8277},{""key"":""ArrowUp"",""event"":""keydown"",""t"":8305},{""key"":""ArrowUp"",""event"":""keydown"",""t"":8335},{""key"":""ArrowUp"",""event"":""keydown"",""t"":8367},{""key"":""ArrowUp"",""event"":""keydown"",""t"":8412},{""key"":""ArrowLeft"",""event"":""keyup"",""t"":8421},{""key"":""ArrowUp"",""event"":""keyup"",""t"":8437},{""key"":"" "",""event"":""keydown"",""t"":8712},{""key"":"" "",""event"":""keyup"",""t"":8814},{""key"":""Enter"",""event"":""keydown"",""t"":9453},{""key"":""Enter"",""event"":""keyup"",""t"":9516},{""key"":""ArrowUp"",""event"":""keydown"",""t"":10648},{""key"":""ArrowUp"",""event"":""keydown"",""t"":10904},{""key"":""ArrowUp"",""event"":""keydown"",""t"":10933},{""key"":""ArrowUp"",""event"":""keydown"",""t"":10967},{""key"":""ArrowUp"",""event"":""keyup"",""t"":10968},{""key"":""ArrowRight"",""event"":""keydown"",""t"":11232},{""key"":""ArrowRight"",""event"":""keyup"",""t"":11342},{""key"":""ArrowRight"",""event"":""keydown"",""t"":11783},{""key"":""ArrowRight"",""event"":""keydown"",""t"":12040},{""key"":""ArrowRight"",""event"":""keydown"",""t"":12070},{""key"":""ArrowRight"",""event"":""keydown"",""t"":12113},{""key"":""ArrowRight"",""event"":""keydown"",""t"":12147},{""key"":""ArrowUp"",""event"":""keydown"",""t"":12175},{""key"":""ArrowUp"",""event"":""keydown"",""t"":12430},{""key"":""ArrowUp"",""event"":""keydown"",""t"":12459},{""key"":""ArrowUp"",""event"":""keydown"",""t"":12501},{""key"":""ArrowUp"",""event"":""keydown"",""t"":12528},{""key"":""ArrowUp"",""event"":""keydown"",""t"":12556},{""key"":""ArrowUp"",""event"":""keydown"",""t"":12590},{""key"":""ArrowUp"",""event"":""keydown"",""t"":12636},{""key"":""ArrowUp"",""event"":""keydown"",""t"":12664},{""key"":""ArrowUp"",""event"":""keydown"",""t"":12700},{""key"":""ArrowUp"",""event"":""keydown"",""t"":12730},{""key"":""ArrowUp"",""event"":""keydown"",""t"":12759},{""key"":""ArrowUp"",""event"":""keydown"",""t"":12790},{""key"":""ArrowUp"",""event"":""keydown"",""t"":12821},{""key"":""ArrowUp"",""event"":""keydown"",""t"":12856},{""key"":""ArrowUp"",""event"":""keydown"",""t"":12901},{""key"":""ArrowUp"",""event"":""keydown"",""t"":12930},{""key"":""ArrowUp"",""event"":""keydown"",""t"":12960},{""key"":""ArrowUp"",""event"":""keyup"",""t"":12967},{""key"":""ArrowRight"",""event"":""keyup"",""t"":13269},{""key"":""ArrowRight"",""event"":""keydown"",""t"":13431},{""key"":""ArrowRight"",""event"":""keydown"",""t"":13695},{""key"":""ArrowUp"",""event"":""keydown"",""t"":13703},{""key"":""ArrowUp"",""event"":""keydown"",""t"":13966},{""key"":""ArrowUp"",""event"":""keydown"",""t"":13994},{""key"":""ArrowUp"",""event"":""keydown"",""t"":14026},{""key"":""ArrowUp"",""event"":""keydown"",""t"":14057},{""key"":""ArrowUp"",""event"":""keydown"",""t"":14086},{""key"":""ArrowUp"",""event"":""keydown"",""t"":14129},{""key"":""ArrowUp"",""event"":""keydown"",""t"":14160},{""key"":""ArrowUp"",""event"":""keydown"",""t"":14188},{""key"":""ArrowUp"",""event"":""keydown"",""t"":14228},{""key"":""ArrowUp"",""event"":""keydown"",""t"":14261},{""key"":""ArrowUp"",""event"":""keydown"",""t"":14290},{""key"":""ArrowUp"",""event"":""keydown"",""t"":14317},{""key"":""ArrowUp"",""event"":""keydown"",""t"":14361},{""key"":""ArrowUp"",""event"":""keydown"",""t"":14390},{""key"":""ArrowUp"",""event"":""keyup"",""t"":14407},{""key"":""ArrowUp"",""event"":""keydown"",""t"":14505},{""key"":""ArrowUp"",""event"":""keydown"",""t"":14752},{""key"":""ArrowUp"",""event"":""keyup"",""t"":14757},{""key"":"" "",""event"":""keydown"",""t"":14999},{""key"":""ArrowUp"",""event"":""keydown"",""t"":15024},{""key"":""ArrowUp"",""event"":""keydown"",""t"":15281},{""key"":""ArrowUp"",""event"":""keydown"",""t"":15310},{""key"":""ArrowUp"",""event"":""keydown"",""t"":15341},{""key"":""ArrowUp"",""event"":""keydown"",""t"":15373},{""key"":""ArrowUp"",""event"":""keydown"",""t"":15401},{""key"":""ArrowUp"",""event"":""keydown"",""t"":15445},{""key"":""ArrowUp"",""event"":""keydown"",""t"":15475},{""key"":""ArrowUp"",""event"":""keydown"",""t"":15508},{""key"":""ArrowUp"",""event"":""keyup"",""t"":15534},{""key"":""ArrowRight"",""event"":""keyup"",""t"":15542},{""key"":"" "",""event"":""keyup"",""t"":15558},{""key"":""Backspace"",""event"":""keydown"",""t"":21431},{""key"":""Backspace"",""event"":""keyup"",""t"":21552},{""key"":""Shift"",""event"":""keydown"",""t"":22325},{""key"":""Enter"",""event"":""keydown"",""t"":22326},{""key"":""Shift"",""event"":""keyup"",""t"":22413},{""key"":""Enter"",""event"":""keyup"",""t"":22420},{""key"":""ArrowRight"",""event"":""keydown"",""t"":23046},{""key"":""ArrowRight"",""event"":""keyup"",""t"":23239},{""key"":"" "",""event"":""keydown"",""t"":23247},{""key"":"" "",""event"":""keydown"",""t"":23506},{""key"":"" "",""event"":""keydown"",""t"":23533},{""key"":"" "",""event"":""keydown"",""t"":23564},{""key"":"" "",""event"":""keydown"",""t"":23596},{""key"":"" "",""event"":""keydown"",""t"":23629},{""key"":"" "",""event"":""keydown"",""t"":23673},{""key"":"" "",""event"":""keydown"",""t"":23707},{""key"":"" "",""event"":""keydown"",""t"":23734},{""key"":"" "",""event"":""keydown"",""t"":23760},{""key"":"" "",""event"":""keyup"",""t"":23766},{""key"":""g"",""event"":""keydown"",""t"":32441},{""key"":""g"",""event"":""keyup"",""t"":32527},{""key"":""h"",""event"":""keydown"",""t"":32657},{""key"":""h"",""event"":""keyup"",""t"":32735},{""key"":""o"",""event"":""keydown"",""t"":32831},{""key"":""o"",""event"":""keyup"",""t"":32966},{""key"":""s"",""event"":""keydown"",""t"":32998},{""key"":""s"",""event"":""keyup"",""t"":33085},{""key"":""t"",""event"":""keydown"",""t"":33110},{""key"":""t"",""event"":""keyup"",""t"":33205},{""key"":""Enter"",""event"":""keydown"",""t"":33581},{""key"":""Enter"",""event"":""keyup"",""t"":33710},{""key"":""ArrowRight"",""event"":""keydown"",""t"":34335},{""key"":""ArrowRight"",""event"":""keydown"",""t"":34597},{""key"":""ArrowRight"",""event"":""keydown"",""t"":34617},{""key"":""ArrowRight"",""event"":""keydown"",""t"":34657},{""key"":""ArrowRight"",""event"":""keydown"",""t"":34678},{""key"":""ArrowRight"",""event"":""keydown"",""t"":34715},{""key"":""ArrowRight"",""event"":""keydown"",""t"":34756},{""key"":""ArrowRight"",""event"":""keydown"",""t"":34778},{""key"":""ArrowRight"",""event"":""keydown"",""t"":34817},{""key"":""ArrowRight"",""event"":""keydown"",""t"":34857},{""key"":""ArrowRight"",""event"":""keydown"",""t"":34878},{""key"":""ArrowRight"",""event"":""keydown"",""t"":34916},{""key"":""ArrowRight"",""event"":""keydown"",""t"":34957},{""key"":""ArrowRight"",""event"":""keydown"",""t"":34977},{""key"":""ArrowRight"",""event"":""keydown"",""t"":35017},{""key"":""ArrowRight"",""event"":""keydown"",""t"":35056},{""key"":""ArrowRight"",""event"":""keydown"",""t"":35078},{""key"":""ArrowRight"",""event"":""keydown"",""t"":35117},{""key"":""ArrowRight"",""event"":""keydown"",""t"":35157},{""key"":""ArrowRight"",""event"":""keydown"",""t"":35178},{""key"":""ArrowRight"",""event"":""keydown"",""t"":35217},{""key"":""ArrowRight"",""event"":""keydown"",""t"":35236},{""key"":""ArrowRight"",""event"":""keydown"",""t"":35278},{""key"":""ArrowRight"",""event"":""keydown"",""t"":35317},{""key"":""ArrowRight"",""event"":""keydown"",""t"":35337},{""key"":""ArrowRight"",""event"":""keydown"",""t"":35378},{""key"":""ArrowRight"",""event"":""keydown"",""t"":35417},{""key"":""ArrowRight"",""event"":""keydown"",""t"":35438},{""key"":""ArrowRight"",""event"":""keydown"",""t"":35478},{""key"":""ArrowRight"",""event"":""keydown"",""t"":35516},{""key"":""ArrowRight"",""event"":""keydown"",""t"":35537},{""key"":""ArrowRight"",""event"":""keydown"",""t"":35579},{""key"":""ArrowRight"",""event"":""keydown"",""t"":35617},{""key"":""ArrowRight"",""event"":""keydown"",""t"":35636},{""key"":""ArrowRight"",""event"":""keydown"",""t"":35679},{""key"":""ArrowRight"",""event"":""keydown"",""t"":35717},{""key"":""ArrowRight"",""event"":""keydown"",""t"":35736},{""key"":""ArrowRight"",""event"":""keydown"",""t"":35778},{""key"":""ArrowRight"",""event"":""keydown"",""t"":35817},{""key"":""ArrowRight"",""event"":""keydown"",""t"":35837},{""key"":""ArrowRight"",""event"":""keydown"",""t"":35878},{""key"":""ArrowRight"",""event"":""keydown"",""t"":35916},{""key"":""ArrowRight"",""event"":""keydown"",""t"":35938},{""key"":""ArrowRight"",""event"":""keyup"",""t"":35975},{""key"":""Backspace"",""event"":""keydown"",""t"":40879},{""key"":""Backspace"",""event"":""keyup"",""t"":40957},{""key"":""Backspace"",""event"":""keydown"",""t"":41166},{""key"":""Backspace"",""event"":""keyup"",""t"":41279},{""key"":""Backspace"",""event"":""keydown"",""t"":41703},{""key"":""Backspace"",""event"":""keyup"",""t"":41814},{""key"":""g"",""event"":""keydown"",""t"":42598},{""key"":""g"",""event"":""keyup"",""t"":42718},{""key"":""h"",""event"":""keydown"",""t"":42791},{""key"":""h"",""event"":""keyup"",""t"":42885},{""key"":""o"",""event"":""keydown"",""t"":42989},{""key"":""o"",""event"":""keyup"",""t"":43109},{""key"":""s"",""event"":""keydown"",""t"":43150},{""key"":""s"",""event"":""keyup"",""t"":43254},{""key"":""t"",""event"":""keydown"",""t"":43286},{""key"":""t"",""event"":""keyup"",""t"":43391},{""key"":""Enter"",""event"":""keydown"",""t"":43637},{""key"":""Enter"",""event"":""keyup"",""t"":43847},{""key"":""ArrowRight"",""event"":""keydown"",""t"":44287},{""key"":""ArrowRight"",""event"":""keydown"",""t"":44537},{""key"":""ArrowRight"",""event"":""keydown"",""t"":44576},{""key"":""ArrowRight"",""event"":""keydown"",""t"":44596},{""key"":""ArrowRight"",""event"":""keydown"",""t"":44636},{""key"":""ArrowRight"",""event"":""keydown"",""t"":44679},{""key"":""ArrowRight"",""event"":""keydown"",""t"":44698},{""key"":""ArrowRight"",""event"":""keydown"",""t"":44737},{""key"":""ArrowRight"",""event"":""keydown"",""t"":44779},{""key"":""ArrowRight"",""event"":""keydown"",""t"":44797},{""key"":""ArrowRight"",""event"":""keydown"",""t"":44836},{""key"":""ArrowRight"",""event"":""keydown"",""t"":44877},{""key"":""ArrowRight"",""event"":""keydown"",""t"":44898},{""key"":""ArrowRight"",""event"":""keydown"",""t"":44938},{""key"":""ArrowRight"",""event"":""keydown"",""t"":44956},{""key"":""ArrowRight"",""event"":""keydown"",""t"":44998},{""key"":""ArrowUp"",""event"":""keydown"",""t"":45007},{""key"":""ArrowUp"",""event"":""keyup"",""t"":45206},{""key"":""ArrowRight"",""event"":""keyup"",""t"":45711},{""key"":""Enter"",""event"":""keydown"",""t"":49053}]","[]"
"349280","","{""creativity-rating"":5,""creativity-free-response"":""the game is actually more fun than the first game. the unique game play makes you think. yeah we can make this game much bigger.it remind me of super liminal"",""originality-rating"":3,""originality-free-response"":""it feels like there is games like it. the same concept but at the same time. it has it charm. and like i say same same but different \nit look like super liminal . nut at the same time has its ideas"",""effectiveness-rating"":5,""effectiveness-free-response"":""i did enjoy it even if it only has one level. but the idea took me by surprise. it is actually a fun idea. maybe the dev can make this game much bigger."",""authenticity-rating"":4,""attention-check"":3,""intentionality-rating"":4,""authenticity-intentionality-free-response"":""it looked like a full game but when i played it it was only one level so i thought maybe i can restart the level but when i tried to i was sent here. the game is fun with a good intention of teaching the player how to think outside the box.maybe thinking of a new idea to the game. it will be a full game with a fun concept""}","evaluation-gemini-5-rename","survey","8","1138382","0.0-8.0","6987fbc16603cc742ebec4ec","6987c292780adf01bb926159","69a4dab776b046af9b3ebe73","","","","","","",""
"22958","","{""concept-creativity-rating"":5,""concept-implementation-rating"":3,""question1"":null}","concept-gemini-5-rename","survey","9","1161364","0.0-9.0","6987fbc16603cc742ebec4ec","6987c292780adf01bb926159","69a4dab776b046af9b3ebe73","","","","","","",""
"1819","You have completed your evaluation of the second video game.<br><br>Press any key to proceed to the final game."," ","pre-game-three-message","html-keyboard-response","10","1163184","0.0-10.0","6987fbc16603cc742ebec4ec","6987c292780adf01bb926159","69a4dab776b046af9b3ebe73","","","","","","",""
"337966","","","game-claude-5-cartographer","plugin-game-iframe","11","1501152","0.0-11.0","6987fbc16603cc742ebec4ec","6987c292780adf01bb926159","69a4dab776b046af9b3ebe73","emergency-exit","phase:playing (land 100%)","{""stage"":""phase:playing (land 100%)"",""detail"":{""gamePhase"":""playing"",""landSaved"":300,""landPercent"":100,""elapsedTime"":4.821879999999704,""citiesAlive"":5,""ink"":100}}","null","null","[{""key"":"" "",""event"":""keyup"",""t"":85}]","[]"
"298840","","{""creativity-rating"":2,""creativity-free-response"":""it looked like a tower defense and there are alot of these type of games. it has a cool idea but alot of the tower defense games has this idea"",""originality-rating"":1,""originality-free-response"":""lots of these game look like the others, it looked different but actually it looked copied like this game was made by a greedy company looking to cash out"",""effectiveness-rating"":3,""effectiveness-free-response"":""it was normal not enjoyable and not boring it has a cool idea but this idea was used soo much i cant even remebr when did i play a tower defense original game"",""authenticity-rating"":2,""attention-check"":3,""intentionality-rating"":2,""authenticity-intentionality-free-response"":""this game looked like it was made by a greedy company the concept is copied the game play is the same as different game. yeah it has a changed prospective but it looked the same to me""}","evaluation-claude-5-cartographer","survey","12","1800047","0.0-12.0","6987fbc16603cc742ebec4ec","6987c292780adf01bb926159","69a4dab776b046af9b3ebe73","","","","","","",""
"15814","","{""concept-creativity-rating"":2,""concept-implementation-rating"":4,""question1"":null}","concept-claude-5-cartographer","survey","13","1815887","0.0-13.0","6987fbc16603cc742ebec4ec","6987c292780adf01bb926159","69a4dab776b046af9b3ebe73","","","","","","",""
"3490","You have completed all of the games!<br><br>Press any key to proceed to some final questions before returning to Prolific."," ","pre-baseline-questions","html-keyboard-response","14","1819378","0.0-14.0","6987fbc16603cc742ebec4ec","6987c292780adf01bb926159","69a4dab776b046af9b3ebe73","","","","","","",""
"35013","","{""baseline_originality_rating"":4,""baseline_effectiveness_rating"":5,""baseline_authenticity_rating"":5,""baseline_intentionality_rating"":4}","baseline-questions-rating","survey","15","1854447","0.0-15.0","6987fbc16603cc742ebec4ec","6987c292780adf01bb926159","69a4dab776b046af9b3ebe73","","","","","","",""
"277977","","{""ai_aware_question"":""it is impressive that these game was made by AI. and each one has it cool concept and idea, my assessment of these game will be like this first game has a cool idea and was made good. it has some flaws but it is still good.\nthe 2nd game has the coolest idea ever using codes and names to change builds i felt like a hacker but i wash it had more levels\n3rd game has a cool idea but that cool idea was used so much i don't even know if it has it or no changing the view of the game looked great and this was the most polished one but the idea was taken and it was not enjoyable. but not that boring either,as i said the AI was impressive to make these game with these original ideas""}","ai-aware-question","survey","16","2132435","0.0-16.0","6987fbc16603cc742ebec4ec","6987c292780adf01bb926159","69a4dab776b046af9b3ebe73","","","","","","",""
"10390","
        <p> You have completed the experiment! Press any key to save your data and get redirected back to Prolific. <strong>Please do not close the page until you have been redirected to Prolific.</strong> <p>
      "," ","goodbye","html-keyboard-response","17","2142826","0.0-17.0","6987fbc16603cc742ebec4ec","6987c292780adf01bb926159","69a4dab776b046af9b3ebe73","","","","","","",""
