"rt","stimulus","response","phase","trial_type","trial_index","time_elapsed","internal_node_id","prolific_subject_id","study_id","session_id","exit_reason","exit_stage","exit_progress","game_data","emergency_text","keystrokes","mouse_events"
"8613","Welcome!<br><br>In this study, you will play three short video games that were generated by Artificial Intelligence (AI) and complete a short survey after each game.<br><br>Please make sure you are in a quiet environment where you can focus for the duration of the study. Some games may use sound, so please ensure that your device's volume is not muted.<br><br>Press any key to begin.","arrowright","welcome-message","html-keyboard-response","0","8930","0.0-0.0","698ce4c33956b8cb4fc8f802","6987c292780adf01bb926159","69a61e47dfc87ffeeb9de277","","","","","","",""
"13982","","{""commitment-check"":[""yes""]}","commitment-check","survey","1","22930","0.0-1.0","698ce4c33956b8cb4fc8f802","6987c292780adf01bb926159","69a61e47dfc87ffeeb9de277","","","","","","",""
"6304","Press any key to proceed to the first video game. Should you encounter a game-breaking bug, please report the issue in the Menu tab to the right of the screen.","arrowright","pre-game-one-message","html-keyboard-response","2","29234","0.0-2.0","698ce4c33956b8cb4fc8f802","6987c292780adf01bb926159","69a61e47dfc87ffeeb9de277","","","","","","",""
"275204","","","game-chat-6-tidepainter","plugin-game-iframe","3","304456","0.0-3.0","698ce4c33956b8cb4fc8f802","6987c292780adf01bb926159","69a61e47dfc87ffeeb9de277","game-complete","end:success","{""stage"":""end:success"",""detail"":{""success"":true,""shellsFilled"":3,""wavesUsed"":6}}","{""result"":""win"",""shellsFilled"":3,""wavesUsed"":6}","null","[{""key"":""ArrowRight"",""event"":""keyup"",""t"":153}]","[]"
"406777","","{""creativity-rating"":3,""creativity-free-response"":""It is a neat idea of a game, but too basic, as it doesn't require much imput by the user, and the rules are too unintuitive."",""originality-rating"":1,""originality-free-response"":""I've seen many games that are like this, but most of them are more appealing aesthetically, have more interesting mechanics, and require much more imputs by the user, to keep the game interesting."",""effectiveness-rating"":2,""effectiveness-free-response"":""The game was unintituive, but easy to play, making the challenge only figuring out how to play the game.\nThe game has too many bugs, as the circles started dissapearing after a while with no reason.\nOverall the aesthetics were too simple."",""authenticity-rating"":1,""attention-check"":3,""intentionality-rating"":1,""authenticity-intentionality-free-response"":""The game feels like a quickly made game, with no depth, no skill expression, and too shallow.\nThe game would need quite the amount of feedback to make it playable, as it is too buggy and lacks quality of life for a game.""}","evaluation-chat-6-tidepainter","survey","4","711251","0.0-4.0","698ce4c33956b8cb4fc8f802","6987c292780adf01bb926159","69a61e47dfc87ffeeb9de277","","","","","","",""
"38138","","{""concept-creativity-rating"":3,""concept-implementation-rating"":1,""question1"":null}","concept-chat-6-tidepainter","survey","5","749398","0.0-5.0","698ce4c33956b8cb4fc8f802","6987c292780adf01bb926159","69a61e47dfc87ffeeb9de277","","","","","","",""
"2570","You have completed your evaluation of the first video game.<br><br>Press any key to proceed to the second game.","arrowright","pre-game-two-message","html-keyboard-response","6","751969","0.0-6.0","698ce4c33956b8cb4fc8f802","6987c292780adf01bb926159","69a61e47dfc87ffeeb9de277","","","","","","",""
"639889","","","game-claude-5-cartographer","plugin-game-iframe","7","1391866","0.0-7.0","698ce4c33956b8cb4fc8f802","6987c292780adf01bb926159","69a61e47dfc87ffeeb9de277","game-complete","phase:results (land 1%)","{""stage"":""phase:results (land 1%)"",""detail"":{""gamePhase"":""results"",""landSaved"":3,""landPercent"":1,""elapsedTime"":300.007099999999,""citiesAlive"":3,""ink"":100}}","{""result"":""complete"",""landPercent"":1,""citiesSurviving"":3,""peopleSaved"":2400}","null","[{""key"":""ArrowRight"",""event"":""keyup"",""t"":79},{""key"":""Enter"",""event"":""keydown"",""t"":639875}]","[]"
"270239","","{""creativity-rating"":4,""creativity-free-response"":""It was a creative idea of a game, can't say that I've played a game like this before"",""originality-rating"":3,""originality-free-response"":""The mechanics were a new thing for me, the narrative and themes were the regular for a \""save the world\"" game and the aesthetics were a regular game from the 2000's, making it uninspiring."",""effectiveness-rating"":1,""effectiveness-free-response"":""The game was too boring, as for saving the cities, you need to spam click, making it more tiresome than fun."",""authenticity-rating"":1,""attention-check"":3,""intentionality-rating"":1,""authenticity-intentionality-free-response"":""The game was boring and uninspired, the game doesn't reflect the developer intentionality of saving people.""}","evaluation-claude-5-cartographer","survey","8","1662118","0.0-8.0","698ce4c33956b8cb4fc8f802","6987c292780adf01bb926159","69a61e47dfc87ffeeb9de277","","","","","","",""
"43165","","{""concept-creativity-rating"":3,""concept-implementation-rating"":1,""question1"":null}","concept-claude-5-cartographer","survey","9","1705292","0.0-9.0","698ce4c33956b8cb4fc8f802","6987c292780adf01bb926159","69a61e47dfc87ffeeb9de277","","","","","","",""
"2832","You have completed your evaluation of the second video game.<br><br>Press any key to proceed to the final game.","arrowright","pre-game-three-message","html-keyboard-response","10","1708124","0.0-10.0","698ce4c33956b8cb4fc8f802","6987c292780adf01bb926159","69a61e47dfc87ffeeb9de277","","","","","","",""
"20960","","","game-gemini-1-static","plugin-game-iframe","11","1729096","0.0-11.0","698ce4c33956b8cb4fc8f802","6987c292780adf01bb926159","69a61e47dfc87ffeeb9de277","game-complete","completed","{""stage"":""completed"",""detail"":{""signalHealth"":45,""playerDistance"":0,""p1ToGoal"":0,""p2ToGoal"":0,""avgToGoal"":0}}","{""result"":""win"",""signalHealth"":44.675049998074876}","null","[{""key"":""ArrowRight"",""event"":""keyup"",""t"":92},{""key"":""d"",""event"":""keydown"",""t"":3199},{""key"":""d"",""event"":""keyup"",""t"":3405},{""key"":""ArrowLeft"",""event"":""keydown"",""t"":3481},{""key"":""ArrowLeft"",""event"":""keyup"",""t"":3751},{""key"":""d"",""event"":""keydown"",""t"":3914},{""key"":""ArrowLeft"",""event"":""keydown"",""t"":4023},{""key"":""d"",""event"":""keyup"",""t"":4102},{""key"":""ArrowLeft"",""event"":""keyup"",""t"":4136},{""key"":""ArrowLeft"",""event"":""keydown"",""t"":4349},{""key"":""d"",""event"":""keydown"",""t"":4359},{""key"":""d"",""event"":""keyup"",""t"":4460},{""key"":""ArrowLeft"",""event"":""keyup"",""t"":4461},{""key"":""ArrowUp"",""event"":""keydown"",""t"":4845},{""key"":""w"",""event"":""keydown"",""t"":4849},{""key"":""a"",""event"":""keydown"",""t"":5176},{""key"":""w"",""event"":""keyup"",""t"":5224},{""key"":""ArrowRight"",""event"":""keydown"",""t"":5228},{""key"":""ArrowUp"",""event"":""keyup"",""t"":5240},{""key"":""a"",""event"":""keyup"",""t"":5489},{""key"":""ArrowRight"",""event"":""keyup"",""t"":5544},{""key"":""w"",""event"":""keydown"",""t"":5975},{""key"":""ArrowUp"",""event"":""keydown"",""t"":5995},{""key"":""ArrowLeft"",""event"":""keydown"",""t"":6033},{""key"":""d"",""event"":""keydown"",""t"":6058},{""key"":""ArrowUp"",""event"":""keyup"",""t"":6377},{""key"":""d"",""event"":""keyup"",""t"":6377},{""key"":""w"",""event"":""keyup"",""t"":6378},{""key"":""ArrowLeft"",""event"":""keyup"",""t"":6398},{""key"":""ArrowLeft"",""event"":""keydown"",""t"":6704},{""key"":""d"",""event"":""keydown"",""t"":6829},{""key"":""ArrowLeft"",""event"":""keyup"",""t"":6864},{""key"":""d"",""event"":""keyup"",""t"":6912},{""key"":""w"",""event"":""keydown"",""t"":7281},{""key"":""d"",""event"":""keydown"",""t"":7281},{""key"":""ArrowUp"",""event"":""keydown"",""t"":7307},{""key"":""ArrowLeft"",""event"":""keydown"",""t"":7315},{""key"":""ArrowUp"",""event"":""keyup"",""t"":7628},{""key"":""w"",""event"":""keyup"",""t"":7648},{""key"":""d"",""event"":""keyup"",""t"":7648},{""key"":""ArrowLeft"",""event"":""keyup"",""t"":7658},{""key"":""d"",""event"":""keydown"",""t"":9067},{""key"":""d"",""event"":""keyup"",""t"":9163},{""key"":""d"",""event"":""keydown"",""t"":9406},{""key"":""d"",""event"":""keyup"",""t"":9549},{""key"":""w"",""event"":""keydown"",""t"":10004},{""key"":""ArrowUp"",""event"":""keydown"",""t"":10025},{""key"":""w"",""event"":""keyup"",""t"":10252},{""key"":""ArrowUp"",""event"":""keyup"",""t"":10282},{""key"":""d"",""event"":""keydown"",""t"":11482},{""key"":""ArrowLeft"",""event"":""keydown"",""t"":11502},{""key"":""d"",""event"":""keyup"",""t"":11726},{""key"":""ArrowLeft"",""event"":""keyup"",""t"":11860},{""key"":""ArrowLeft"",""event"":""keydown"",""t"":12107},{""key"":""d"",""event"":""keydown"",""t"":12120},{""key"":""ArrowLeft"",""event"":""keyup"",""t"":12273},{""key"":""d"",""event"":""keyup"",""t"":12273},{""key"":""d"",""event"":""keydown"",""t"":12648},{""key"":""d"",""event"":""keyup"",""t"":12787},{""key"":""ArrowLeft"",""event"":""keydown"",""t"":12955},{""key"":""d"",""event"":""keydown"",""t"":12972},{""key"":""ArrowLeft"",""event"":""keyup"",""t"":13073},{""key"":""d"",""event"":""keyup"",""t"":13073},{""key"":""w"",""event"":""keydown"",""t"":13713},{""key"":""ArrowUp"",""event"":""keydown"",""t"":13725},{""key"":""ArrowRight"",""event"":""keydown"",""t"":13760},{""key"":""a"",""event"":""keydown"",""t"":13907},{""key"":""w"",""event"":""keyup"",""t"":14185},{""key"":""ArrowUp"",""event"":""keyup"",""t"":14186},{""key"":""a"",""event"":""keyup"",""t"":14225},{""key"":""ArrowRight"",""event"":""keyup"",""t"":14252},{""key"":""d"",""event"":""keydown"",""t"":14532},{""key"":""d"",""event"":""keyup"",""t"":14553},{""key"":""ArrowUp"",""event"":""keydown"",""t"":15026},{""key"":""w"",""event"":""keydown"",""t"":15031},{""key"":""ArrowLeft"",""event"":""keydown"",""t"":15060},{""key"":""d"",""event"":""keydown"",""t"":15088},{""key"":""d"",""event"":""keyup"",""t"":15370},{""key"":""w"",""event"":""keyup"",""t"":15378},{""key"":""ArrowUp"",""event"":""keyup"",""t"":15406},{""key"":""ArrowLeft"",""event"":""keyup"",""t"":15414},{""key"":""d"",""event"":""keydown"",""t"":16506},{""key"":""w"",""event"":""keydown"",""t"":16510},{""key"":""ArrowLeft"",""event"":""keydown"",""t"":16510},{""key"":""ArrowUp"",""event"":""keydown"",""t"":16532},{""key"":""ArrowUp"",""event"":""keydown"",""t"":17039},{""key"":""ArrowUp"",""event"":""keydown"",""t"":17076},{""key"":""ArrowUp"",""event"":""keydown"",""t"":17110},{""key"":""d"",""event"":""keyup"",""t"":17131},{""key"":""w"",""event"":""keyup"",""t"":17187},{""key"":""ArrowUp"",""event"":""keyup"",""t"":17208},{""key"":""ArrowLeft"",""event"":""keyup"",""t"":17219},{""key"":""Enter"",""event"":""keydown"",""t"":20948}]","[]"
"213606","","{""creativity-rating"":2,""creativity-free-response"":""This is a ripoff of various old flash games"",""originality-rating"":1,""originality-free-response"":""The game is totally unoriginal, as there are many old flash games that are like this."",""effectiveness-rating"":2,""effectiveness-free-response"":""The game would be fun if it had more levels, but as it is, is too shallow and simple."",""authenticity-rating"":1,""attention-check"":3,""intentionality-rating"":2,""authenticity-intentionality-free-response"":""The game feels unaunthentic, as it ripoffs many old games that are like this, but the animation at the ending, relfects a little about the intentionality of the developer.""}","evaluation-gemini-1-static","survey","12","1942713","0.0-12.0","698ce4c33956b8cb4fc8f802","6987c292780adf01bb926159","69a61e47dfc87ffeeb9de277","","","","","","",""
"12395","","{""concept-creativity-rating"":4,""concept-implementation-rating"":1,""question1"":null}","concept-gemini-1-static","survey","13","1955117","0.0-13.0","698ce4c33956b8cb4fc8f802","6987c292780adf01bb926159","69a61e47dfc87ffeeb9de277","","","","","","",""
"3006","You have completed all of the games!<br><br>Press any key to proceed to some final questions before returning to Prolific.","arrowright","pre-baseline-questions","html-keyboard-response","14","1958124","0.0-14.0","698ce4c33956b8cb4fc8f802","6987c292780adf01bb926159","69a61e47dfc87ffeeb9de277","","","","","","",""
"51699","","{""baseline_originality_rating"":3,""baseline_effectiveness_rating"":2,""baseline_authenticity_rating"":1,""baseline_intentionality_rating"":1}","baseline-questions-rating","survey","15","2009830","0.0-15.0","698ce4c33956b8cb4fc8f802","6987c292780adf01bb926159","69a61e47dfc87ffeeb9de277","","","","","","",""
"92786","","{""ai_aware_question"":""No, the games feel uninspired in general, as they have too many bugs, include too many issues that need to be verified by testers, and overall all of the games feel uninspired, not reflecting the intentionality of the original vision for the games.""}","ai-aware-question","survey","16","2102621","0.0-16.0","698ce4c33956b8cb4fc8f802","6987c292780adf01bb926159","69a61e47dfc87ffeeb9de277","","","","","","",""
"4693","
        <p> You have completed the experiment! Press any key to save your data and get redirected back to Prolific. <strong>Please do not close the page until you have been redirected to Prolific.</strong> <p>
      ","arrowright","goodbye","html-keyboard-response","17","2107314","0.0-17.0","698ce4c33956b8cb4fc8f802","6987c292780adf01bb926159","69a61e47dfc87ffeeb9de277","","","","","","",""
