"rt","stimulus","response","phase","trial_type","trial_index","time_elapsed","internal_node_id","prolific_subject_id","study_id","session_id","exit_reason","game_data","emergency_text","keystrokes","mouse_events"
"4022","Welcome! In this study, you will play three short video games, completing a short survey after each game.<br><br>Please make sure you are in a quiet environment where you can focus for the duration of the study. Some games may use sound, so please ensure that your device's volume is not muted.<br><br>Press any key to begin.","capslock","welcome-message","html-keyboard-response","0","4023","0.0-0.0","699b19eb2744be8e2c9e73ed","6987c292780adf01bb926159","69a1f19d0327e6d9cd79270a","","","","",""
"8926","","{""commitment-check"":[""yes""]}","commitment-check","survey","1","12964","0.0-1.0","699b19eb2744be8e2c9e73ed","6987c292780adf01bb926159","69a1f19d0327e6d9cd79270a","","","","",""
"1500","Press any key to proceed to the first video game.","arrowright","pre-game-one-message","html-keyboard-response","2","14464","0.0-2.0","699b19eb2744be8e2c9e73ed","6987c292780adf01bb926159","69a1f19d0327e6d9cd79270a","","","","",""
"556770","","","game-chat-5-glider","plugin-game-iframe","3","571239","0.0-3.0","699b19eb2744be8e2c9e73ed","6987c292780adf01bb926159","69a1f19d0327e6d9cd79270a","game-complete","{""result"":""win"",""finishTimeMs"":134134.14000003273,""bumps"":0,""resonanceCount"":5}","null","[{""key"":""ArrowRight"",""event"":""keyup"",""t"":64},{""key"":""ArrowRight"",""event"":""keydown"",""t"":41510},{""key"":""ArrowRight"",""event"":""keyup"",""t"":41629},{""key"":""h"",""event"":""keydown"",""t"":70199},{""key"":""h"",""event"":""keyup"",""t"":70277},{""key"":""h"",""event"":""keydown"",""t"":81386},{""key"":""h"",""event"":""keyup"",""t"":81466},{""key"":""r"",""event"":""keydown"",""t"":100010},{""key"":""r"",""event"":""keyup"",""t"":100085},{""key"":""h"",""event"":""keydown"",""t"":101219},{""key"":""h"",""event"":""keyup"",""t"":101279},{""key"":""h"",""event"":""keydown"",""t"":110128},{""key"":""h"",""event"":""keyup"",""t"":110207},{""key"":""AudioVolumeMute"",""event"":""keydown"",""t"":134414},{""key"":""AudioVolumeMute"",""event"":""keyup"",""t"":134513},{""key"":""ArrowDown"",""event"":""keydown"",""t"":134658},{""key"":""ArrowRight"",""event"":""keydown"",""t"":134673},{""key"":""ArrowRight"",""event"":""keyup"",""t"":134737},{""key"":""ArrowDown"",""event"":""keyup"",""t"":134747},{""key"":""ArrowRight"",""event"":""keydown"",""t"":134897},{""key"":""ArrowUp"",""event"":""keydown"",""t"":135001},{""key"":""ArrowRight"",""event"":""keyup"",""t"":135016},{""key"":""ArrowUp"",""event"":""keyup"",""t"":135021},{""key"":""ArrowDown"",""event"":""keydown"",""t"":136160},{""key"":""ArrowRight"",""event"":""keydown"",""t"":136244},{""key"":""ArrowDown"",""event"":""keyup"",""t"":136259},{""key"":""ArrowUp"",""event"":""keydown"",""t"":136389},{""key"":""ArrowRight"",""event"":""keyup"",""t"":136443},{""key"":""ArrowLeft"",""event"":""keydown"",""t"":136483},{""key"":""ArrowUp"",""event"":""keyup"",""t"":136503},{""key"":""ArrowDown"",""event"":""keydown"",""t"":136608},{""key"":""ArrowLeft"",""event"":""keyup"",""t"":136633},{""key"":""ArrowRight"",""event"":""keydown"",""t"":136663},{""key"":""ArrowDown"",""event"":""keyup"",""t"":136698},{""key"":""ArrowRight"",""event"":""keyup"",""t"":136802},{""key"":""ArrowUp"",""event"":""keydown"",""t"":136806},{""key"":""ArrowLeft"",""event"":""keydown"",""t"":136877},{""key"":""ArrowUp"",""event"":""keyup"",""t"":136902},{""key"":""ArrowLeft"",""event"":""keyup"",""t"":136966},{""key"":""h"",""event"":""keydown"",""t"":137991},{""key"":""h"",""event"":""keyup"",""t"":138121},{""key"":""h"",""event"":""keydown"",""t"":139150},{""key"":""h"",""event"":""keyup"",""t"":139245},{""key"":""h"",""event"":""keydown"",""t"":147846},{""key"":""h"",""event"":""keyup"",""t"":147990},{""key"":""Escape"",""event"":""keydown"",""t"":153682},{""key"":""Escape"",""event"":""keyup"",""t"":153730},{""key"":""h"",""event"":""keydown"",""t"":154889},{""key"":""h"",""event"":""keyup"",""t"":154974},{""key"":""h"",""event"":""keydown"",""t"":204271},{""key"":""h"",""event"":""keyup"",""t"":204345},{""key"":""h"",""event"":""keydown"",""t"":212281},{""key"":""h"",""event"":""keyup"",""t"":212385},{""key"":""f"",""event"":""keydown"",""t"":256795},{""key"":""f"",""event"":""keyup"",""t"":256879},{""key"":""h"",""event"":""keydown"",""t"":257829},{""key"":""h"",""event"":""keyup"",""t"":257904},{""key"":""h"",""event"":""keydown"",""t"":263441},{""key"":""h"",""event"":""keyup"",""t"":263535},{""key"":""h"",""event"":""keydown"",""t"":265832},{""key"":""h"",""event"":""keyup"",""t"":265957},{""key"":""h"",""event"":""keydown"",""t"":267042},{""key"":""h"",""event"":""keyup"",""t"":267166},{""key"":""Escape"",""event"":""keydown"",""t"":268197},{""key"":""Escape"",""event"":""keyup"",""t"":268291},{""key"":""Escape"",""event"":""keydown"",""t"":269370},{""key"":""Escape"",""event"":""keyup"",""t"":269440},{""key"":""h"",""event"":""keydown"",""t"":272653},{""key"":""h"",""event"":""keyup"",""t"":272713},{""key"":""h"",""event"":""keydown"",""t"":286827},{""key"":""h"",""event"":""keyup"",""t"":286941},{""key"":""AudioVolumeUp"",""event"":""keydown"",""t"":349218},{""key"":""AudioVolumeUp"",""event"":""keyup"",""t"":349287},{""key"":""AudioVolumeDown"",""event"":""keydown"",""t"":349701},{""key"":""AudioVolumeDown"",""event"":""keyup"",""t"":349779},{""key"":""AudioVolumeDown"",""event"":""keydown"",""t"":349879},{""key"":""AudioVolumeDown"",""event"":""keyup"",""t"":349945},{""key"":""AudioVolumeDown"",""event"":""keydown"",""t"":350049},{""key"":""AudioVolumeDown"",""event"":""keyup"",""t"":350098},{""key"":""AudioVolumeDown"",""event"":""keydown"",""t"":350298},{""key"":""AudioVolumeDown"",""event"":""keyup"",""t"":350372},{""key"":""AudioVolumeDown"",""event"":""keydown"",""t"":350631},{""key"":""AudioVolumeDown"",""event"":""keyup"",""t"":350705},{""key"":""AudioVolumeDown"",""event"":""keydown"",""t"":350829},{""key"":""AudioVolumeDown"",""event"":""keyup"",""t"":350894},{""key"":""q"",""event"":""keydown"",""t"":414327},{""key"":""q"",""event"":""keyup"",""t"":414391},{""key"":""Enter"",""event"":""keydown"",""t"":556764}]","[]"
"228318","","{""creativity-rating"":1,""creativity-free-response"":""The instructions are really hard to understand. I spend 5 minutes before seeing anything move because of my actions. Once I knew what I was doing, It still felt very random."",""originality-rating"":1,""originality-free-response"":""I've played swiping games before. And swiping platformers too. They are popular in phone games."",""effectiveness-rating"":1,""effectiveness-free-response"":""The instructions are frustrating. But the game itself is too. It felt very random. I did not use any strategy to complete it. Just swiping."",""authenticity-rating"":1,""attention-check"":3,""intentionality-rating"":1,""authenticity-intentionality-free-response"":""The instructions need a lot more effort. It needs to be cleared at the start, which piece is the one the player is supposed to be moving. And the game does not feel intentional at all. I completed without thinking. It felt random when the piece advanced, and when it didn't.""}","evaluation-chat-5-glider","survey","4","799580","0.0-4.0","699b19eb2744be8e2c9e73ed","6987c292780adf01bb926159","69a1f19d0327e6d9cd79270a","","","","",""
"11568","","{""concept-creativity-rating"":3,""concept-implementation-rating"":1,""question1"":null}","concept-chat-5-glider","survey","5","811161","0.0-5.0","699b19eb2744be8e2c9e73ed","6987c292780adf01bb926159","69a1f19d0327e6d9cd79270a","","","","",""
"3659","You have completed your evaluation of the first video game.<br><br>Press any key to proceed to the second game.","arrowright","pre-game-two-message","html-keyboard-response","6","814821","0.0-6.0","699b19eb2744be8e2c9e73ed","6987c292780adf01bb926159","69a1f19d0327e6d9cd79270a","","","","",""
"54840","","","game-chat-6-tidepainter","plugin-game-iframe","7","869665","0.0-7.0","699b19eb2744be8e2c9e73ed","6987c292780adf01bb926159","69a1f19d0327e6d9cd79270a","game-complete","{""result"":""win"",""shellsFilled"":3,""wavesUsed"":7}","null","[{""key"":""ArrowRight"",""event"":""keyup"",""t"":54}]","[]"
"264428","","{""creativity-rating"":3,""creativity-free-response"":""I've seen games with bouncing balls of different colors back in high school 10 years ago. But I don't remember them being about filling buckets. That seems new."",""originality-rating"":3,""originality-free-response"":""Filling buckets and mixing them with bouncing colors is something I haven't seen before. But the instructions need work. I spend time figuring out what I was asked to do. Maybe if the design wasn't so simple."",""effectiveness-rating"":3,""effectiveness-free-response"":""Understanding what I'm supposed to do was the frustrating part. Once I saw the first ball moving, the game itself worked well. But I wouldn't call it enjoyable. Maybe if the game required to be completed in 1 wave only."",""authenticity-rating"":3,""attention-check"":3,""intentionality-rating"":3,""authenticity-intentionality-free-response"":""It feels like a project for a class. It does not feel like the person behind it is trying to develop a real game.""}","evaluation-chat-6-tidepainter","survey","8","1134112","0.0-8.0","699b19eb2744be8e2c9e73ed","6987c292780adf01bb926159","69a1f19d0327e6d9cd79270a","","","","",""
"5477","","{""concept-creativity-rating"":5,""concept-implementation-rating"":3,""question1"":null}","concept-chat-6-tidepainter","survey","9","1139602","0.0-9.0","699b19eb2744be8e2c9e73ed","6987c292780adf01bb926159","69a1f19d0327e6d9cd79270a","","","","",""
"6080","You have completed your evaluation of the second video game.<br><br>Press any key to proceed to the final game.","r","pre-game-three-message","html-keyboard-response","10","1145682","0.0-10.0","699b19eb2744be8e2c9e73ed","6987c292780adf01bb926159","69a1f19d0327e6d9cd79270a","","","","",""
"710776","","","game-claude-5-cartographer","plugin-game-iframe","11","1856464","0.0-11.0","699b19eb2744be8e2c9e73ed","6987c292780adf01bb926159","69a1f19d0327e6d9cd79270a","game-complete","{""result"":""complete"",""landPercent"":1,""citiesSurviving"":3,""peopleSaved"":2750}","null","[{""key"":""r"",""event"":""keyup"",""t"":64},{""key"":""Enter"",""event"":""keydown"",""t"":710769}]","[]"
"262989","","{""creativity-rating"":3,""creativity-free-response"":""I haven't seen a game like this before. But I don't know the point of it. At least with the instructions as they are, I was just clicking the 5 cities all the time. No strategy."",""originality-rating"":2,""originality-free-response"":""It felt like a clicker game more than a strategy game. Just trying to hit the 5 cities at all times. It surprised me how little strategy it took."",""effectiveness-rating"":1,""effectiveness-free-response"":""The game was not enjoyable at all. No strategy. Just clicking the 5 cities. Maybe just being a little mindful of the destructions wave rhythm, but barely."",""authenticity-rating"":2,""attention-check"":3,""intentionality-rating"":1,""authenticity-intentionality-free-response"":""The graphics seemed like the part where the developer was most intentional. But the gameplay did not feel intentional and without any effort. The authenticity was there, as I have not seen a 2d top down defense game from an expanding wave.""}","evaluation-claude-5-cartographer","survey","12","2119471","0.0-12.0","699b19eb2744be8e2c9e73ed","6987c292780adf01bb926159","69a1f19d0327e6d9cd79270a","","","","",""
"26981","","{""concept-creativity-rating"":5,""concept-implementation-rating"":2,""question1"":null}","concept-claude-5-cartographer","survey","13","2146464","0.0-13.0","699b19eb2744be8e2c9e73ed","6987c292780adf01bb926159","69a1f19d0327e6d9cd79270a","","","","",""
"4804","You have completed all of the games!<br><br>Press any key to proceed to some final questions before returning to Prolific.","f","pre-baseline-questions","html-keyboard-response","14","2151269","0.0-14.0","699b19eb2744be8e2c9e73ed","6987c292780adf01bb926159","69a1f19d0327e6d9cd79270a","","","","",""
"20577","","{""baseline_originality_rating"":4,""baseline_effectiveness_rating"":4,""baseline_authenticity_rating"":4,""baseline_intentionality_rating"":5}","baseline-questions-rating","survey","15","2171857","0.0-15.0","699b19eb2744be8e2c9e73ed","6987c292780adf01bb926159","69a1f19d0327e6d9cd79270a","","","","",""
"70865","","{""ai_blind_question"":""I thought they felt like school projects for a grade. They didn't feel like real games from a developer wishing to publish them. So I guess knowing it's AI, is not too different from a student just wanting a passing grade.""}","ai-blind-question","survey","16","2242727","0.0-16.0","699b19eb2744be8e2c9e73ed","6987c292780adf01bb926159","69a1f19d0327e6d9cd79270a","","","","",""
"4728","
        <p> You have completed the experiment! Press any key to save your data and get redirected back to Prolific. <strong>Please do not close the page until you have been redirected to Prolific.</strong> <p>
      ","arrowdown","goodbye","html-keyboard-response","17","2247456","0.0-17.0","699b19eb2744be8e2c9e73ed","6987c292780adf01bb926159","69a1f19d0327e6d9cd79270a","","","","",""
