"rt","stimulus","response","phase","trial_type","trial_index","time_elapsed","internal_node_id","prolific_subject_id","study_id","session_id","exit_reason","exit_stage","exit_progress","game_data","emergency_text","keystrokes","mouse_events"
"23640","Welcome!<br><br>In this study, you will play three short video games that were generated by Artificial Intelligence (AI) and complete a short survey after each game.<br><br>Please make sure you are in a quiet environment where you can focus for the duration of the study. Some games may use sound, so please ensure that your device's volume is not muted.<br><br>Press any key to begin."," ","welcome-message","html-keyboard-response","0","23646","0.0-0.0","6661e3435d2645ebabbb4c09","6987c292780adf01bb926159","69a61e4beda8f3cfb7622eb6","","","","","","",""
"23169","","{""commitment-check"":[""yes""]}","commitment-check","survey","1","46842","0.0-1.0","6661e3435d2645ebabbb4c09","6987c292780adf01bb926159","69a61e4beda8f3cfb7622eb6","","","","","","",""
"7184","Press any key to proceed to the first video game. Should you encounter a game-breaking bug, please report the issue in the Menu tab to the right of the screen."," ","pre-game-one-message","html-keyboard-response","2","54027","0.0-2.0","6661e3435d2645ebabbb4c09","6987c292780adf01bb926159","69a61e4beda8f3cfb7622eb6","","","","","","",""
"1185740","","","game-chat-6-tidepainter","plugin-game-iframe","3","1239774","0.0-3.0","6661e3435d2645ebabbb4c09","6987c292780adf01bb926159","69a61e4beda8f3cfb7622eb6","game-complete","end:success","{""stage"":""end:success"",""detail"":{""success"":true,""shellsFilled"":3,""wavesUsed"":12}}","{""result"":""win"",""shellsFilled"":3,""wavesUsed"":12}","null","[{""key"":"" "",""event"":""keyup"",""t"":157},{""key"":""F11"",""event"":""keydown"",""t"":4402},{""key"":""F11"",""event"":""keyup"",""t"":4553},{""key"":"" "",""event"":""keydown"",""t"":1100370},{""key"":"" "",""event"":""keyup"",""t"":1100426}]","[]"
"207392","","{""creativity-rating"":4,""creativity-free-response"":""Would  say it's a simple yet complicated concept? Because the instructions are there, but each person interprets them differently"",""originality-rating"":4,""originality-free-response"":""I haven't really played many of these types of games, so the mechanics seemed interesting to me"",""effectiveness-rating"":3,""effectiveness-free-response"":""I had a little trouble understanding the mechanisms for it to work correctly"",""authenticity-rating"":4,""attention-check"":3,""intentionality-rating"":5,""authenticity-intentionality-free-response"":""It's actually a bit complicated to describe the game since the mechanics and goal were simple, however you can see the intentions and effort behind the game""}","evaluation-chat-6-tidepainter","survey","4","1447189","0.0-4.0","6661e3435d2645ebabbb4c09","6987c292780adf01bb926159","69a61e4beda8f3cfb7622eb6","","","","","","",""
"27833","","{""concept-creativity-rating"":5,""concept-implementation-rating"":4,""question1"":null}","concept-chat-6-tidepainter","survey","5","1475032","0.0-5.0","6661e3435d2645ebabbb4c09","6987c292780adf01bb926159","69a61e4beda8f3cfb7622eb6","","","","","","",""
"2699","You have completed your evaluation of the first video game.<br><br>Press any key to proceed to the second game."," ","pre-game-two-message","html-keyboard-response","6","1477732","0.0-6.0","6661e3435d2645ebabbb4c09","6987c292780adf01bb926159","69a61e4beda8f3cfb7622eb6","","","","","","",""
"247860","","","game-claude-6-flame","plugin-game-iframe","7","1725598","0.0-7.0","6661e3435d2645ebabbb4c09","6987c292780adf01bb926159","69a61e4beda8f3cfb7622eb6","game-complete","ending","{""stage"":""ending"",""detail"":{""distancePct"":96,""glowPhase"":4.7,""flamesPlaced"":3,""isDead"":false,""isEnding"":true}}","{""result"":""win"",""distance"":6167.942644209206}","null","[{""key"":"" "",""event"":""keyup"",""t"":120},{""key"":"" "",""event"":""keydown"",""t"":2344},{""key"":"" "",""event"":""keyup"",""t"":2496},{""key"":"" "",""event"":""keydown"",""t"":6920},{""key"":"" "",""event"":""keyup"",""t"":7072},{""key"":""Enter"",""event"":""keydown"",""t"":247856}]","[]"
"173366","","{""creativity-rating"":5,""creativity-free-response"":""Compared to the previous game, this one was more intuitive and a little more fun the functions of objects of attraction/repulsion and how they lit up"",""originality-rating"":4,""originality-free-response"":""It reminds me of a game with the same theme of clicking to keep the character from falling, however this one can be considered somewhat different due to the lighting concept"",""effectiveness-rating"":5,""effectiveness-free-response"":""It was fun, each object had a different function and the color was eye-catching"",""authenticity-rating"":5,""attention-check"":3,""intentionality-rating"":5,""authenticity-intentionality-free-response"":""It's clear that it's a project made with care and dedication it was entertaining to play""}","evaluation-claude-6-flame","survey","8","1898978","0.0-8.0","6661e3435d2645ebabbb4c09","6987c292780adf01bb926159","69a61e4beda8f3cfb7622eb6","","","","","","",""
"18668","","{""concept-creativity-rating"":5,""concept-implementation-rating"":5,""question1"":null}","concept-claude-6-flame","survey","9","1917655","0.0-9.0","6661e3435d2645ebabbb4c09","6987c292780adf01bb926159","69a61e4beda8f3cfb7622eb6","","","","","","",""
"2433","You have completed your evaluation of the second video game.<br><br>Press any key to proceed to the final game."," ","pre-game-three-message","html-keyboard-response","10","1920090","0.0-10.0","6661e3435d2645ebabbb4c09","6987c292780adf01bb926159","69a61e4beda8f3cfb7622eb6","","","","","","",""
"52407","","","game-gemini-1-static","plugin-game-iframe","11","1972503","0.0-11.0","6661e3435d2645ebabbb4c09","6987c292780adf01bb926159","69a61e4beda8f3cfb7622eb6","game-complete","completed","{""stage"":""completed"",""detail"":{""signalHealth"":83,""playerDistance"":0,""p1ToGoal"":0,""p2ToGoal"":0,""avgToGoal"":0}}","{""result"":""win"",""signalHealth"":83.34000000005994}","null","[{""key"":"" "",""event"":""keyup"",""t"":143},{""key"":""ArrowRight"",""event"":""keydown"",""t"":8426},{""key"":""ArrowRight"",""event"":""keyup"",""t"":8570},{""key"":""ArrowLeft"",""event"":""keydown"",""t"":9266},{""key"":""ArrowLeft"",""event"":""keyup"",""t"":9426},{""key"":""ArrowLeft"",""event"":""keydown"",""t"":9818},{""key"":""ArrowLeft"",""event"":""keyup"",""t"":9993},{""key"":""ArrowRight"",""event"":""keydown"",""t"":10898},{""key"":""ArrowRight"",""event"":""keyup"",""t"":11010},{""key"":""ArrowLeft"",""event"":""keydown"",""t"":11379},{""key"":""ArrowLeft"",""event"":""keyup"",""t"":11538},{""key"":""ArrowLeft"",""event"":""keydown"",""t"":11674},{""key"":""ArrowLeft"",""event"":""keyup"",""t"":11802},{""key"":""d"",""event"":""keydown"",""t"":12306},{""key"":""d"",""event"":""keyup"",""t"":12482},{""key"":""d"",""event"":""keydown"",""t"":12889},{""key"":""d"",""event"":""keyup"",""t"":13057},{""key"":""d"",""event"":""keydown"",""t"":15026},{""key"":""d"",""event"":""keyup"",""t"":15171},{""key"":""w"",""event"":""keydown"",""t"":16330},{""key"":""w"",""event"":""keyup"",""t"":16498},{""key"":""w"",""event"":""keydown"",""t"":17826},{""key"":""w"",""event"":""keyup"",""t"":18106},{""key"":""a"",""event"":""keydown"",""t"":18122},{""key"":""a"",""event"":""keyup"",""t"":18441},{""key"":""ArrowLeft"",""event"":""keydown"",""t"":19162},{""key"":""ArrowLeft"",""event"":""keyup"",""t"":19538},{""key"":""ArrowLeft"",""event"":""keydown"",""t"":19906},{""key"":""ArrowLeft"",""event"":""keyup"",""t"":20066},{""key"":""ArrowLeft"",""event"":""keydown"",""t"":20243},{""key"":""ArrowLeft"",""event"":""keyup"",""t"":20402},{""key"":""ArrowRight"",""event"":""keydown"",""t"":20794},{""key"":""ArrowRight"",""event"":""keyup"",""t"":21130},{""key"":""ArrowRight"",""event"":""keydown"",""t"":21354},{""key"":""ArrowRight"",""event"":""keyup"",""t"":21466},{""key"":""ArrowUp"",""event"":""keydown"",""t"":22090},{""key"":""ArrowUp"",""event"":""keyup"",""t"":22187},{""key"":""ArrowRight"",""event"":""keydown"",""t"":22250},{""key"":""ArrowRight"",""event"":""keyup"",""t"":22667},{""key"":""ArrowLeft"",""event"":""keydown"",""t"":25562},{""key"":""ArrowLeft"",""event"":""keyup"",""t"":25659},{""key"":""ArrowRight"",""event"":""keydown"",""t"":25883},{""key"":""ArrowRight"",""event"":""keyup"",""t"":25987},{""key"":""ArrowRight"",""event"":""keydown"",""t"":26154},{""key"":""ArrowRight"",""event"":""keyup"",""t"":26242},{""key"":""d"",""event"":""keydown"",""t"":26467},{""key"":""d"",""event"":""keyup"",""t"":26626},{""key"":""d"",""event"":""keydown"",""t"":26754},{""key"":""d"",""event"":""keyup"",""t"":26906},{""key"":""d"",""event"":""keydown"",""t"":27018},{""key"":""d"",""event"":""keyup"",""t"":27154},{""key"":""d"",""event"":""keydown"",""t"":27522},{""key"":""d"",""event"":""keyup"",""t"":27594},{""key"":""w"",""event"":""keydown"",""t"":28099},{""key"":""w"",""event"":""keyup"",""t"":28179},{""key"":""w"",""event"":""keydown"",""t"":28378},{""key"":""a"",""event"":""keydown"",""t"":28426},{""key"":""w"",""event"":""keyup"",""t"":28450},{""key"":""a"",""event"":""keydown"",""t"":28956},{""key"":""a"",""event"":""keydown"",""t"":28988},{""key"":""a"",""event"":""keyup"",""t"":29018},{""key"":""d"",""event"":""keydown"",""t"":29466},{""key"":""d"",""event"":""keyup"",""t"":29625},{""key"":""ArrowLeft"",""event"":""keydown"",""t"":30033},{""key"":""ArrowLeft"",""event"":""keyup"",""t"":30530},{""key"":""ArrowLeft"",""event"":""keydown"",""t"":30778},{""key"":""ArrowLeft"",""event"":""keyup"",""t"":31130},{""key"":""d"",""event"":""keydown"",""t"":31386},{""key"":""d"",""event"":""keyup"",""t"":31738},{""key"":""w"",""event"":""keydown"",""t"":32402},{""key"":""a"",""event"":""keydown"",""t"":32530},{""key"":""w"",""event"":""keyup"",""t"":32602},{""key"":""a"",""event"":""keyup"",""t"":33090},{""key"":""ArrowLeft"",""event"":""keydown"",""t"":33970},{""key"":""ArrowLeft"",""event"":""keyup"",""t"":34145},{""key"":""ArrowLeft"",""event"":""keydown"",""t"":34268},{""key"":""ArrowLeft"",""event"":""keyup"",""t"":34434},{""key"":""ArrowLeft"",""event"":""keydown"",""t"":34586},{""key"":""ArrowLeft"",""event"":""keyup"",""t"":34683},{""key"":""ArrowUp"",""event"":""keydown"",""t"":35130},{""key"":""ArrowLeft"",""event"":""keydown"",""t"":35234},{""key"":""ArrowUp"",""event"":""keyup"",""t"":35250},{""key"":""ArrowLeft"",""event"":""keyup"",""t"":35642},{""key"":""ArrowRight"",""event"":""keydown"",""t"":36146},{""key"":""ArrowRight"",""event"":""keyup"",""t"":36186},{""key"":""ArrowRight"",""event"":""keydown"",""t"":36618},{""key"":""ArrowRight"",""event"":""keyup"",""t"":36714},{""key"":""ArrowUp"",""event"":""keydown"",""t"":36994},{""key"":""ArrowUp"",""event"":""keyup"",""t"":37097},{""key"":""ArrowRight"",""event"":""keydown"",""t"":37154},{""key"":""ArrowRight"",""event"":""keyup"",""t"":37498},{""key"":""ArrowRight"",""event"":""keydown"",""t"":38122},{""key"":""ArrowRight"",""event"":""keyup"",""t"":38233},{""key"":""ArrowRight"",""event"":""keydown"",""t"":38539},{""key"":""ArrowRight"",""event"":""keyup"",""t"":38666},{""key"":""d"",""event"":""keydown"",""t"":39171},{""key"":""d"",""event"":""keyup"",""t"":39290},{""key"":""d"",""event"":""keydown"",""t"":39402},{""key"":""d"",""event"":""keyup"",""t"":39514},{""key"":""d"",""event"":""keydown"",""t"":39618},{""key"":""d"",""event"":""keyup"",""t"":39755},{""key"":""d"",""event"":""keydown"",""t"":39898},{""key"":""d"",""event"":""keyup"",""t"":39986},{""key"":""w"",""event"":""keydown"",""t"":40284},{""key"":""d"",""event"":""keydown"",""t"":40402},{""key"":""w"",""event"":""keyup"",""t"":40442},{""key"":""d"",""event"":""keyup"",""t"":40666},{""key"":""ArrowUp"",""event"":""keydown"",""t"":42250},{""key"":""ArrowUp"",""event"":""keyup"",""t"":42354},{""key"":""ArrowRight"",""event"":""keydown"",""t"":42490},{""key"":""ArrowRight"",""event"":""keyup"",""t"":42634},{""key"":""ArrowRight"",""event"":""keydown"",""t"":42986},{""key"":""ArrowRight"",""event"":""keyup"",""t"":43138},{""key"":""ArrowRight"",""event"":""keydown"",""t"":43467},{""key"":""ArrowRight"",""event"":""keyup"",""t"":43588},{""key"":""d"",""event"":""keydown"",""t"":44010},{""key"":""d"",""event"":""keyup"",""t"":44130},{""key"":""d"",""event"":""keydown"",""t"":44354},{""key"":""d"",""event"":""keyup"",""t"":44498},{""key"":""w"",""event"":""keydown"",""t"":44626},{""key"":""d"",""event"":""keydown"",""t"":44778},{""key"":""w"",""event"":""keyup"",""t"":44818},{""key"":""d"",""event"":""keyup"",""t"":44978},{""key"":""ArrowRight"",""event"":""keydown"",""t"":45595},{""key"":""ArrowRight"",""event"":""keyup"",""t"":45650},{""key"":""d"",""event"":""keydown"",""t"":46210},{""key"":""d"",""event"":""keyup"",""t"":46274},{""key"":""w"",""event"":""keydown"",""t"":46394},{""key"":""d"",""event"":""keydown"",""t"":46538},{""key"":""ArrowUp"",""event"":""keydown"",""t"":46602},{""key"":""ArrowUp"",""event"":""keyup"",""t"":46738},{""key"":""w"",""event"":""keyup"",""t"":46938},{""key"":""d"",""event"":""keyup"",""t"":46938},{""key"":""a"",""event"":""keydown"",""t"":47026},{""key"":""a"",""event"":""keyup"",""t"":47170},{""key"":"" "",""event"":""keydown"",""t"":49962},{""key"":"" "",""event"":""keyup"",""t"":50074}]","[]"
"176461","","{""creativity-rating"":2,""creativity-free-response"":""It reminds me of a game \""Fireboy and Watergirl,\"" which has a very similar two-player theme"",""originality-rating"":3,""originality-free-response"":""While it has similarities, it is also different for example, the concept of moving away quite a bit or getting quite close you have to find a balance"",""effectiveness-rating"":5,""effectiveness-free-response"":""It was easy, maybe because it's just a demo, but on the second try I was able to figure out how to pass the level easily"",""authenticity-rating"":4,""attention-check"":3,""intentionality-rating"":4,""authenticity-intentionality-free-response"":""I really wouldn't know how to describe this game I feel like it's missing something, as it feels a bit more subdued compared to the first two""}","evaluation-gemini-1-static","survey","12","2148978","0.0-12.0","6661e3435d2645ebabbb4c09","6987c292780adf01bb926159","69a61e4beda8f3cfb7622eb6","","","","","","",""
"7487","","{""concept-creativity-rating"":5,""concept-implementation-rating"":5,""question1"":null}","concept-gemini-1-static","survey","13","2156473","0.0-13.0","6661e3435d2645ebabbb4c09","6987c292780adf01bb926159","69a61e4beda8f3cfb7622eb6","","","","","","",""
"2309","You have completed all of the games!<br><br>Press any key to proceed to some final questions before returning to Prolific."," ","pre-baseline-questions","html-keyboard-response","14","2158782","0.0-14.0","6661e3435d2645ebabbb4c09","6987c292780adf01bb926159","69a61e4beda8f3cfb7622eb6","","","","","","",""
"26353","","{""baseline_originality_rating"":5,""baseline_effectiveness_rating"":5,""baseline_authenticity_rating"":5,""baseline_intentionality_rating"":5}","baseline-questions-rating","survey","15","2185147","0.0-15.0","6661e3435d2645ebabbb4c09","6987c292780adf01bb926159","69a61e4beda8f3cfb7622eb6","","","","","","",""
"49450","","{""ai_aware_question"":""No, because the mechanics and themes are already known, so the fact that they were AI didn't really affect it""}","ai-aware-question","survey","16","2234601","0.0-16.0","6661e3435d2645ebabbb4c09","6987c292780adf01bb926159","69a61e4beda8f3cfb7622eb6","","","","","","",""
"3104","
        <p> You have completed the experiment! Press any key to save your data and get redirected back to Prolific. <strong>Please do not close the page until you have been redirected to Prolific.</strong> <p>
      "," ","goodbye","html-keyboard-response","17","2237706","0.0-17.0","6661e3435d2645ebabbb4c09","6987c292780adf01bb926159","69a61e4beda8f3cfb7622eb6","","","","","","",""
