"rt","stimulus","response","phase","trial_type","trial_index","time_elapsed","internal_node_id","prolific_subject_id","study_id","session_id","exit_reason","exit_stage","exit_progress","game_data","emergency_text","keystrokes","mouse_events"
"4719","Welcome!<br><br>In this study, you will play three short video games that were generated by Artificial Intelligence (AI) and complete a short survey after each game.<br><br>Please make sure you are in a quiet environment where you can focus for the duration of the study. Some games may use sound, so please ensure that your device's volume is not muted.<br><br>Press any key to begin.","end","welcome-message","html-keyboard-response","0","4724","0.0-0.0","566bdeb3beaf21001240085a","6987c292780adf01bb926159","69a516eeb4b96633b18564c6","","","","","","",""
"9147","","{""commitment-check"":[""yes""]}","commitment-check","survey","1","13900","0.0-1.0","566bdeb3beaf21001240085a","6987c292780adf01bb926159","69a516eeb4b96633b18564c6","","","","","","",""
"2077","Press any key to proceed to the first video game. Should you encounter a game-breaking bug, please report the issue in the Menu tab to the right of the screen.","f11","pre-game-one-message","html-keyboard-response","2","15978","0.0-2.0","566bdeb3beaf21001240085a","6987c292780adf01bb926159","69a516eeb4b96633b18564c6","","","","","","",""
"171794","","","game-chat-3-orbit","plugin-game-iframe","3","187789","0.0-3.0","566bdeb3beaf21001240085a","6987c292780adf01bb926159","69a516eeb4b96633b18564c6","game-complete","complete","{""stage"":""complete"",""detail"":{""state"":""complete"",""movementIndex"":2,""launchesUsed"":24,""phraseProgress"":8}}","{""result"":""win"",""accuracy"":24,""totalLaunches"":78,""onBeatLaunches"":19,""longestOrbit"":78.1997}","null","[{""key"":""F11"",""event"":""keyup"",""t"":44},{""key"":""F11"",""event"":""keydown"",""t"":2074},{""key"":""F11"",""event"":""keyup"",""t"":2185},{""key"":""n"",""event"":""keydown"",""t"":68442},{""key"":""n"",""event"":""keyup"",""t"":68549},{""key"":""n"",""event"":""keydown"",""t"":94791},{""key"":""n"",""event"":""keyup"",""t"":94913},{""key"":""n"",""event"":""keydown"",""t"":145006},{""key"":""n"",""event"":""keyup"",""t"":145099},{""key"":""n"",""event"":""keydown"",""t"":167379},{""key"":""n"",""event"":""keyup"",""t"":167539},{""key"":""Enter"",""event"":""keydown"",""t"":171791}]","[]"
"717781","","{""creativity-rating"":3,""creativity-free-response"":""It felt like electroplankton and I'm sure there are other similar games about launching things and creating sound, so not super creative. It was also kind of confusing and difficult, so... to me, to be creative it needs to also be good (being different at random doesn't make it creative)"",""originality-rating"":3,""originality-free-response"":""As I said, it felt a lot like electroplankton in a way (the good way of making sound by launching stuff). The difference was the objective. I never felt like I had control, which is original, but not good."",""effectiveness-rating"":1,""effectiveness-free-response"":""I felt like I didn't have any control, I was launching the things but I wasn't able to make them go anywhere near where I wanted (like, I couldn't make them gravitate, for example). Thus, I couldn't produce any sounds I wanted to produce and it felt random. I just launched a lot to clear the game, I couldn't \""match\"" anything really."",""authenticity-rating"":4,""attention-check"":3,""intentionality-rating"":4,""authenticity-intentionality-free-response"":""Even though I thought of Elektroplankton, I haven't seen a game that combined that with gravity or with these objectives. I think that's the developer's idea, though I suppose they thought it would be more fun.""}","evaluation-chat-3-orbit","survey","4","905602","0.0-4.0","566bdeb3beaf21001240085a","6987c292780adf01bb926159","69a516eeb4b96633b18564c6","","","","","","",""
"24852","","{""concept-implementation-rating"":2,""concept-creativity-rating"":3,""question1"":null}","concept-chat-3-orbit","survey","5","930468","0.0-5.0","566bdeb3beaf21001240085a","6987c292780adf01bb926159","69a516eeb4b96633b18564c6","","","","","","",""
"85599","You have completed your evaluation of the first video game.<br><br>Press any key to proceed to the second game."," ","pre-game-two-message","html-keyboard-response","6","1016068","0.0-6.0","566bdeb3beaf21001240085a","6987c292780adf01bb926159","69a516eeb4b96633b18564c6","","","","","","",""
"51802","","","game-chat-1-echo","plugin-game-iframe","7","1067876","0.0-7.0","566bdeb3beaf21001240085a","6987c292780adf01bb926159","69a516eeb4b96633b18564c6","game-complete","ended:win","{""stage"":""ended:win"",""detail"":{""gameState"":""WIN"",""relicCollected"":true,""exitOpen"":true,""alertsCount"":6,""timeLeftMs"":254167.6199999592}}","{""reason"":""WIN"",""alertsCount"":6,""timeLeft"":254167.6199999592}","null","[{""key"":"" "",""event"":""keyup"",""t"":107},{""key"":"" "",""event"":""keydown"",""t"":3065},{""key"":"" "",""event"":""keyup"",""t"":3188},{""key"":""a"",""event"":""keydown"",""t"":7130},{""key"":""a"",""event"":""keyup"",""t"":7351},{""key"":""d"",""event"":""keydown"",""t"":7824},{""key"":""d"",""event"":""keyup"",""t"":8266},{""key"":""d"",""event"":""keydown"",""t"":14514},{""key"":""d"",""event"":""keyup"",""t"":14881},{""key"":""s"",""event"":""keydown"",""t"":15392},{""key"":""d"",""event"":""keydown"",""t"":15790},{""key"":""s"",""event"":""keyup"",""t"":15797},{""key"":""d"",""event"":""keydown"",""t"":16306},{""key"":""d"",""event"":""keydown"",""t"":16336},{""key"":""d"",""event"":""keydown"",""t"":16367},{""key"":""d"",""event"":""keydown"",""t"":16398},{""key"":""d"",""event"":""keydown"",""t"":16429},{""key"":""d"",""event"":""keydown"",""t"":16475},{""key"":""d"",""event"":""keydown"",""t"":16507},{""key"":""d"",""event"":""keydown"",""t"":16537},{""key"":""d"",""event"":""keydown"",""t"":16569},{""key"":""d"",""event"":""keydown"",""t"":16600},{""key"":""d"",""event"":""keydown"",""t"":16632},{""key"":""d"",""event"":""keydown"",""t"":16663},{""key"":""d"",""event"":""keydown"",""t"":16694},{""key"":""d"",""event"":""keydown"",""t"":16740},{""key"":""d"",""event"":""keydown"",""t"":16771},{""key"":""d"",""event"":""keydown"",""t"":16803},{""key"":""d"",""event"":""keydown"",""t"":16834},{""key"":""s"",""event"":""keydown"",""t"":16843},{""key"":""d"",""event"":""keyup"",""t"":16991},{""key"":""s"",""event"":""keydown"",""t"":17500},{""key"":""s"",""event"":""keydown"",""t"":17530},{""key"":""s"",""event"":""keydown"",""t"":17561},{""key"":""s"",""event"":""keydown"",""t"":17592},{""key"":""s"",""event"":""keydown"",""t"":17638},{""key"":""s"",""event"":""keydown"",""t"":17669},{""key"":""s"",""event"":""keydown"",""t"":17701},{""key"":""s"",""event"":""keydown"",""t"":17732},{""key"":""s"",""event"":""keydown"",""t"":17763},{""key"":""s"",""event"":""keydown"",""t"":17794},{""key"":""s"",""event"":""keydown"",""t"":17826},{""key"":""s"",""event"":""keydown"",""t"":17857},{""key"":""s"",""event"":""keydown"",""t"":17888},{""key"":""s"",""event"":""keydown"",""t"":17935},{""key"":""s"",""event"":""keydown"",""t"":17965},{""key"":""s"",""event"":""keydown"",""t"":17996},{""key"":""s"",""event"":""keydown"",""t"":18027},{""key"":""s"",""event"":""keydown"",""t"":18058},{""key"":""s"",""event"":""keydown"",""t"":18090},{""key"":""s"",""event"":""keydown"",""t"":18121},{""key"":""s"",""event"":""keydown"",""t"":18153},{""key"":""s"",""event"":""keydown"",""t"":18198},{""key"":""s"",""event"":""keydown"",""t"":18229},{""key"":""s"",""event"":""keydown"",""t"":18259},{""key"":""s"",""event"":""keydown"",""t"":18289},{""key"":""s"",""event"":""keydown"",""t"":18320},{""key"":""s"",""event"":""keydown"",""t"":18352},{""key"":""d"",""event"":""keydown"",""t"":18377},{""key"":""s"",""event"":""keyup"",""t"":18383},{""key"":""d"",""event"":""keydown"",""t"":18892},{""key"":""d"",""event"":""keydown"",""t"":18923},{""key"":""d"",""event"":""keydown"",""t"":18953},{""key"":""d"",""event"":""keydown"",""t"":18985},{""key"":""d"",""event"":""keydown"",""t"":19016},{""key"":""d"",""event"":""keydown"",""t"":19062},{""key"":""d"",""event"":""keydown"",""t"":19093},{""key"":""d"",""event"":""keydown"",""t"":19125},{""key"":""d"",""event"":""keydown"",""t"":19157},{""key"":""d"",""event"":""keydown"",""t"":19186},{""key"":""d"",""event"":""keydown"",""t"":19218},{""key"":""d"",""event"":""keydown"",""t"":19250},{""key"":""d"",""event"":""keydown"",""t"":19280},{""key"":""d"",""event"":""keydown"",""t"":19327},{""key"":""d"",""event"":""keydown"",""t"":19359},{""key"":""d"",""event"":""keydown"",""t"":19388},{""key"":""d"",""event"":""keydown"",""t"":19419},{""key"":""d"",""event"":""keydown"",""t"":19450},{""key"":""d"",""event"":""keydown"",""t"":19481},{""key"":""d"",""event"":""keydown"",""t"":19512},{""key"":""d"",""event"":""keydown"",""t"":19557},{""key"":""d"",""event"":""keydown"",""t"":19589},{""key"":""d"",""event"":""keydown"",""t"":19620},{""key"":""d"",""event"":""keydown"",""t"":19652},{""key"":""d"",""event"":""keydown"",""t"":19684},{""key"":""d"",""event"":""keydown"",""t"":19714},{""key"":""d"",""event"":""keydown"",""t"":19745},{""key"":""d"",""event"":""keydown"",""t"":19776},{""key"":""d"",""event"":""keydown"",""t"":19807},{""key"":""d"",""event"":""keydown"",""t"":19855},{""key"":""d"",""event"":""keydown"",""t"":19886},{""key"":""d"",""event"":""keydown"",""t"":19918},{""key"":""d"",""event"":""keydown"",""t"":19948},{""key"":""d"",""event"":""keydown"",""t"":19978},{""key"":""d"",""event"":""keydown"",""t"":20009},{""key"":""d"",""event"":""keydown"",""t"":20040},{""key"":""d"",""event"":""keydown"",""t"":20086},{""key"":""d"",""event"":""keydown"",""t"":20117},{""key"":""d"",""event"":""keydown"",""t"":20150},{""key"":""d"",""event"":""keydown"",""t"":20180},{""key"":""d"",""event"":""keydown"",""t"":20211},{""key"":""d"",""event"":""keydown"",""t"":20243},{""key"":""d"",""event"":""keydown"",""t"":20273},{""key"":""d"",""event"":""keydown"",""t"":20305},{""key"":""d"",""event"":""keydown"",""t"":20337},{""key"":""d"",""event"":""keydown"",""t"":20383},{""key"":""d"",""event"":""keydown"",""t"":20414},{""key"":""d"",""event"":""keydown"",""t"":20445},{""key"":""d"",""event"":""keydown"",""t"":20477},{""key"":""d"",""event"":""keydown"",""t"":20507},{""key"":""d"",""event"":""keydown"",""t"":20538},{""key"":""d"",""event"":""keydown"",""t"":20569},{""key"":""d"",""event"":""keydown"",""t"":20601},{""key"":""d"",""event"":""keydown"",""t"":20648},{""key"":""d"",""event"":""keydown"",""t"":20679},{""key"":""d"",""event"":""keydown"",""t"":20710},{""key"":""d"",""event"":""keydown"",""t"":20740},{""key"":""d"",""event"":""keydown"",""t"":20771},{""key"":""d"",""event"":""keydown"",""t"":20803},{""key"":""d"",""event"":""keydown"",""t"":20832},{""key"":""d"",""event"":""keydown"",""t"":20879},{""key"":""d"",""event"":""keydown"",""t"":20911},{""key"":""d"",""event"":""keydown"",""t"":20942},{""key"":""d"",""event"":""keydown"",""t"":20972},{""key"":""d"",""event"":""keydown"",""t"":21004},{""key"":""d"",""event"":""keydown"",""t"":21035},{""key"":""d"",""event"":""keydown"",""t"":21065},{""key"":""d"",""event"":""keydown"",""t"":21096},{""key"":""d"",""event"":""keydown"",""t"":21144},{""key"":""d"",""event"":""keydown"",""t"":21173},{""key"":""d"",""event"":""keydown"",""t"":21204},{""key"":""d"",""event"":""keydown"",""t"":21236},{""key"":""d"",""event"":""keydown"",""t"":21266},{""key"":""d"",""event"":""keydown"",""t"":21298},{""key"":""d"",""event"":""keydown"",""t"":21331},{""key"":""d"",""event"":""keydown"",""t"":21360},{""key"":""d"",""event"":""keydown"",""t"":21391},{""key"":""d"",""event"":""keydown"",""t"":21438},{""key"":""d"",""event"":""keydown"",""t"":21470},{""key"":""d"",""event"":""keydown"",""t"":21500},{""key"":""d"",""event"":""keydown"",""t"":21531},{""key"":""d"",""event"":""keydown"",""t"":21561},{""key"":""d"",""event"":""keydown"",""t"":21593},{""key"":""d"",""event"":""keydown"",""t"":21624},{""key"":""d"",""event"":""keydown"",""t"":21670},{""key"":""d"",""event"":""keydown"",""t"":21701},{""key"":""d"",""event"":""keydown"",""t"":21731},{""key"":""d"",""event"":""keydown"",""t"":21763},{""key"":""d"",""event"":""keydown"",""t"":21793},{""key"":""d"",""event"":""keydown"",""t"":21824},{""key"":""d"",""event"":""keydown"",""t"":21854},{""key"":""d"",""event"":""keydown"",""t"":21901},{""key"":""d"",""event"":""keydown"",""t"":21933},{""key"":""d"",""event"":""keydown"",""t"":21964},{""key"":""d"",""event"":""keydown"",""t"":21995},{""key"":""d"",""event"":""keydown"",""t"":22026},{""key"":""d"",""event"":""keydown"",""t"":22057},{""key"":""d"",""event"":""keydown"",""t"":22089},{""key"":""d"",""event"":""keydown"",""t"":22119},{""key"":""d"",""event"":""keydown"",""t"":22166},{""key"":""d"",""event"":""keydown"",""t"":22197},{""key"":""d"",""event"":""keydown"",""t"":22228},{""key"":""d"",""event"":""keydown"",""t"":22258},{""key"":""d"",""event"":""keydown"",""t"":22290},{""key"":""d"",""event"":""keydown"",""t"":22319},{""key"":""d"",""event"":""keydown"",""t"":22350},{""key"":""d"",""event"":""keydown"",""t"":22397},{""key"":""d"",""event"":""keydown"",""t"":22428},{""key"":""d"",""event"":""keydown"",""t"":22458},{""key"":""d"",""event"":""keydown"",""t"":22491},{""key"":""d"",""event"":""keydown"",""t"":22519},{""key"":""d"",""event"":""keydown"",""t"":22551},{""key"":""d"",""event"":""keydown"",""t"":22581},{""key"":""d"",""event"":""keydown"",""t"":22612},{""key"":""d"",""event"":""keyup"",""t"":22628},{""key"":""d"",""event"":""keydown"",""t"":23130},{""key"":""d"",""event"":""keydown"",""t"":23633},{""key"":""d"",""event"":""keydown"",""t"":23663},{""key"":""d"",""event"":""keydown"",""t"":23711},{""key"":""d"",""event"":""keydown"",""t"":23740},{""key"":""d"",""event"":""keydown"",""t"":23771},{""key"":""d"",""event"":""keydown"",""t"":23801},{""key"":""d"",""event"":""keydown"",""t"":23832},{""key"":""d"",""event"":""keydown"",""t"":23863},{""key"":""d"",""event"":""keydown"",""t"":23908},{""key"":""d"",""event"":""keydown"",""t"":23939},{""key"":""d"",""event"":""keydown"",""t"":23971},{""key"":""d"",""event"":""keydown"",""t"":24002},{""key"":""d"",""event"":""keydown"",""t"":24033},{""key"":""d"",""event"":""keydown"",""t"":24064},{""key"":""d"",""event"":""keydown"",""t"":24095},{""key"":""d"",""event"":""keydown"",""t"":24127},{""key"":""d"",""event"":""keydown"",""t"":24173},{""key"":""d"",""event"":""keydown"",""t"":24203},{""key"":""d"",""event"":""keydown"",""t"":24235},{""key"":""d"",""event"":""keydown"",""t"":24265},{""key"":""d"",""event"":""keydown"",""t"":24296},{""key"":""w"",""event"":""keydown"",""t"":24303},{""key"":""d"",""event"":""keyup"",""t"":24347},{""key"":""w"",""event"":""keydown"",""t"":24855},{""key"":""w"",""event"":""keydown"",""t"":24887},{""key"":""w"",""event"":""keydown"",""t"":24916},{""key"":""w"",""event"":""keydown"",""t"":24947},{""key"":""w"",""event"":""keydown"",""t"":24994},{""key"":""w"",""event"":""keydown"",""t"":25024},{""key"":""w"",""event"":""keydown"",""t"":25055},{""key"":""w"",""event"":""keydown"",""t"":25086},{""key"":""w"",""event"":""keydown"",""t"":25118},{""key"":""w"",""event"":""keydown"",""t"":25148},{""key"":""w"",""event"":""keydown"",""t"":25179},{""key"":""w"",""event"":""keydown"",""t"":25210},{""key"":""w"",""event"":""keydown"",""t"":25256},{""key"":""w"",""event"":""keydown"",""t"":25287},{""key"":""w"",""event"":""keydown"",""t"":25318},{""key"":""w"",""event"":""keydown"",""t"":25350},{""key"":""w"",""event"":""keydown"",""t"":25380},{""key"":""w"",""event"":""keydown"",""t"":25411},{""key"":""w"",""event"":""keydown"",""t"":25442},{""key"":""w"",""event"":""keydown"",""t"":25474},{""key"":""w"",""event"":""keydown"",""t"":25520},{""key"":""w"",""event"":""keydown"",""t"":25552},{""key"":""w"",""event"":""keydown"",""t"":25583},{""key"":""w"",""event"":""keydown"",""t"":25614},{""key"":""w"",""event"":""keydown"",""t"":25645},{""key"":""w"",""event"":""keydown"",""t"":25676},{""key"":""w"",""event"":""keydown"",""t"":25707},{""key"":""w"",""event"":""keydown"",""t"":25741},{""key"":""w"",""event"":""keydown"",""t"":25784},{""key"":""w"",""event"":""keydown"",""t"":25816},{""key"":""w"",""event"":""keydown"",""t"":25846},{""key"":""w"",""event"":""keydown"",""t"":25876},{""key"":""w"",""event"":""keydown"",""t"":25908},{""key"":""w"",""event"":""keydown"",""t"":25938},{""key"":""w"",""event"":""keydown"",""t"":25970},{""key"":""w"",""event"":""keydown"",""t"":26016},{""key"":""w"",""event"":""keydown"",""t"":26047},{""key"":""w"",""event"":""keydown"",""t"":26078},{""key"":""w"",""event"":""keydown"",""t"":26110},{""key"":""w"",""event"":""keydown"",""t"":26141},{""key"":""w"",""event"":""keydown"",""t"":26171},{""key"":""w"",""event"":""keydown"",""t"":26202},{""key"":""w"",""event"":""keydown"",""t"":26234},{""key"":""w"",""event"":""keydown"",""t"":26279},{""key"":""w"",""event"":""keydown"",""t"":26310},{""key"":""w"",""event"":""keydown"",""t"":26340},{""key"":""w"",""event"":""keydown"",""t"":26373},{""key"":""d"",""event"":""keydown"",""t"":26394},{""key"":""w"",""event"":""keyup"",""t"":26404},{""key"":""d"",""event"":""keydown"",""t"":26915},{""key"":""d"",""event"":""keydown"",""t"":26945},{""key"":""d"",""event"":""keydown"",""t"":26975},{""key"":""d"",""event"":""keydown"",""t"":27007},{""key"":""d"",""event"":""keydown"",""t"":27037},{""key"":""d"",""event"":""keydown"",""t"":27069},{""key"":""d"",""event"":""keydown"",""t"":27116},{""key"":""d"",""event"":""keydown"",""t"":27146},{""key"":""w"",""event"":""keydown"",""t"":27146},{""key"":""w"",""event"":""keyup"",""t"":27258},{""key"":""d"",""event"":""keyup"",""t"":27826},{""key"":""d"",""event"":""keydown"",""t"":27971},{""key"":""s"",""event"":""keydown"",""t"":28204},{""key"":""d"",""event"":""keyup"",""t"":28227},{""key"":""s"",""event"":""keydown"",""t"":28737},{""key"":""s"",""event"":""keydown"",""t"":28768},{""key"":""s"",""event"":""keydown"",""t"":28798},{""key"":""s"",""event"":""keydown"",""t"":28829},{""key"":""s"",""event"":""keydown"",""t"":28860},{""key"":""s"",""event"":""keydown"",""t"":28905},{""key"":""d"",""event"":""keydown"",""t"":28915},{""key"":""s"",""event"":""keyup"",""t"":28956},{""key"":""d"",""event"":""keyup"",""t"":29431},{""key"":""d"",""event"":""keydown"",""t"":30038},{""key"":""w"",""event"":""keydown"",""t"":30281},{""key"":""w"",""event"":""keydown"",""t"":30783},{""key"":""w"",""event"":""keydown"",""t"":30829},{""key"":""w"",""event"":""keydown"",""t"":30861},{""key"":""w"",""event"":""keydown"",""t"":30892},{""key"":""w"",""event"":""keydown"",""t"":30923},{""key"":""w"",""event"":""keydown"",""t"":30954},{""key"":""w"",""event"":""keydown"",""t"":30985},{""key"":""w"",""event"":""keydown"",""t"":31016},{""key"":""w"",""event"":""keydown"",""t"":31047},{""key"":""w"",""event"":""keydown"",""t"":31095},{""key"":""w"",""event"":""keyup"",""t"":31101},{""key"":""d"",""event"":""keyup"",""t"":31888},{""key"":""a"",""event"":""keydown"",""t"":32151},{""key"":""a"",""event"":""keydown"",""t"":32660},{""key"":""a"",""event"":""keydown"",""t"":32691},{""key"":""a"",""event"":""keydown"",""t"":32721},{""key"":""a"",""event"":""keydown"",""t"":32754},{""key"":""a"",""event"":""keydown"",""t"":32783},{""key"":""a"",""event"":""keydown"",""t"":32829},{""key"":""a"",""event"":""keydown"",""t"":32860},{""key"":""a"",""event"":""keydown"",""t"":32891},{""key"":""a"",""event"":""keydown"",""t"":32922},{""key"":""a"",""event"":""keydown"",""t"":32953},{""key"":""a"",""event"":""keydown"",""t"":32983},{""key"":""a"",""event"":""keydown"",""t"":33028},{""key"":""a"",""event"":""keydown"",""t"":33060},{""key"":""a"",""event"":""keydown"",""t"":33090},{""key"":""a"",""event"":""keydown"",""t"":33120},{""key"":""a"",""event"":""keydown"",""t"":33151},{""key"":""a"",""event"":""keydown"",""t"":33182},{""key"":""a"",""event"":""keydown"",""t"":33213},{""key"":""a"",""event"":""keydown"",""t"":33260},{""key"":""a"",""event"":""keydown"",""t"":33291},{""key"":""a"",""event"":""keydown"",""t"":33321},{""key"":""a"",""event"":""keydown"",""t"":33353},{""key"":""a"",""event"":""keydown"",""t"":33383},{""key"":""a"",""event"":""keydown"",""t"":33415},{""key"":""a"",""event"":""keydown"",""t"":33445},{""key"":""a"",""event"":""keydown"",""t"":33477},{""key"":""s"",""event"":""keydown"",""t"":33508},{""key"":""s"",""event"":""keyup"",""t"":33896},{""key"":""s"",""event"":""keydown"",""t"":34341},{""key"":""s"",""event"":""keydown"",""t"":34844},{""key"":""s"",""event"":""keydown"",""t"":34875},{""key"":""a"",""event"":""keyup"",""t"":34912},{""key"":""s"",""event"":""keydown"",""t"":35418},{""key"":""s"",""event"":""keydown"",""t"":35449},{""key"":""s"",""event"":""keydown"",""t"":35479},{""key"":""s"",""event"":""keydown"",""t"":35525},{""key"":""s"",""event"":""keydown"",""t"":35556},{""key"":""s"",""event"":""keydown"",""t"":35587},{""key"":""s"",""event"":""keydown"",""t"":35618},{""key"":""s"",""event"":""keydown"",""t"":35650},{""key"":""a"",""event"":""keydown"",""t"":35669},{""key"":""s"",""event"":""keyup"",""t"":35689},{""key"":""s"",""event"":""keydown"",""t"":36114},{""key"":""a"",""event"":""keyup"",""t"":36247},{""key"":""d"",""event"":""keydown"",""t"":36465},{""key"":""s"",""event"":""keyup"",""t"":36486},{""key"":""s"",""event"":""keydown"",""t"":36914},{""key"":""d"",""event"":""keyup"",""t"":37057},{""key"":""s"",""event"":""keydown"",""t"":37566},{""key"":""s"",""event"":""keydown"",""t"":37596},{""key"":""s"",""event"":""keydown"",""t"":37627},{""key"":""s"",""event"":""keydown"",""t"":37659},{""key"":""s"",""event"":""keydown"",""t"":37689},{""key"":""s"",""event"":""keydown"",""t"":37734},{""key"":""s"",""event"":""keydown"",""t"":37764},{""key"":""s"",""event"":""keydown"",""t"":37796},{""key"":""s"",""event"":""keydown"",""t"":37826},{""key"":""s"",""event"":""keydown"",""t"":37856},{""key"":""s"",""event"":""keydown"",""t"":37887},{""key"":""s"",""event"":""keydown"",""t"":37935},{""key"":""s"",""event"":""keydown"",""t"":37964},{""key"":""s"",""event"":""keydown"",""t"":37995},{""key"":""s"",""event"":""keydown"",""t"":38026},{""key"":""s"",""event"":""keydown"",""t"":38057},{""key"":""s"",""event"":""keydown"",""t"":38087},{""key"":""s"",""event"":""keydown"",""t"":38119},{""key"":""s"",""event"":""keydown"",""t"":38165},{""key"":""s"",""event"":""keydown"",""t"":38197},{""key"":""s"",""event"":""keydown"",""t"":38228},{""key"":""a"",""event"":""keydown"",""t"":38250},{""key"":""s"",""event"":""keyup"",""t"":38339},{""key"":""a"",""event"":""keydown"",""t"":38848},{""key"":""a"",""event"":""keydown"",""t"":38879},{""key"":""a"",""event"":""keydown"",""t"":38910},{""key"":""a"",""event"":""keydown"",""t"":38941},{""key"":""a"",""event"":""keydown"",""t"":38972},{""key"":""a"",""event"":""keydown"",""t"":39018},{""key"":""a"",""event"":""keydown"",""t"":39048},{""key"":""a"",""event"":""keydown"",""t"":39080},{""key"":""a"",""event"":""keydown"",""t"":39111},{""key"":""a"",""event"":""keydown"",""t"":39140},{""key"":""a"",""event"":""keydown"",""t"":39171},{""key"":""a"",""event"":""keydown"",""t"":39203},{""key"":""a"",""event"":""keydown"",""t"":39249},{""key"":""a"",""event"":""keydown"",""t"":39280},{""key"":""a"",""event"":""keydown"",""t"":39311},{""key"":""a"",""event"":""keydown"",""t"":39341},{""key"":""a"",""event"":""keydown"",""t"":39373},{""key"":""a"",""event"":""keydown"",""t"":39403},{""key"":""a"",""event"":""keydown"",""t"":39436},{""key"":""w"",""event"":""keydown"",""t"":39451},{""key"":""w"",""event"":""keyup"",""t"":39813},{""key"":""a"",""event"":""keyup"",""t"":41523},{""key"":""a"",""event"":""keydown"",""t"":42317},{""key"":""a"",""event"":""keyup"",""t"":42578},{""key"":""a"",""event"":""keydown"",""t"":43313},{""key"":""a"",""event"":""keydown"",""t"":43825},{""key"":""a"",""event"":""keydown"",""t"":43856},{""key"":""a"",""event"":""keydown"",""t"":43887},{""key"":""a"",""event"":""keydown"",""t"":43916},{""key"":""a"",""event"":""keydown"",""t"":43948},{""key"":""w"",""event"":""keydown"",""t"":43984},{""key"":""a"",""event"":""keyup"",""t"":44112},{""key"":""a"",""event"":""keydown"",""t"":44563},{""key"":""w"",""event"":""keyup"",""t"":44616},{""key"":""a"",""event"":""keydown"",""t"":45127},{""key"":""a"",""event"":""keydown"",""t"":45158},{""key"":""a"",""event"":""keydown"",""t"":45190},{""key"":""a"",""event"":""keydown"",""t"":45220},{""key"":""a"",""event"":""keydown"",""t"":45251},{""key"":""a"",""event"":""keydown"",""t"":45282},{""key"":""a"",""event"":""keydown"",""t"":45328},{""key"":""a"",""event"":""keydown"",""t"":45358},{""key"":""a"",""event"":""keydown"",""t"":45390},{""key"":""a"",""event"":""keydown"",""t"":45421},{""key"":""a"",""event"":""keydown"",""t"":45451},{""key"":""a"",""event"":""keydown"",""t"":45482},{""key"":""a"",""event"":""keydown"",""t"":45513},{""key"":""a"",""event"":""keydown"",""t"":45559},{""key"":""a"",""event"":""keydown"",""t"":45591},{""key"":""a"",""event"":""keydown"",""t"":45622},{""key"":""a"",""event"":""keydown"",""t"":45652},{""key"":""a"",""event"":""keydown"",""t"":45683},{""key"":""a"",""event"":""keydown"",""t"":45714},{""key"":""a"",""event"":""keydown"",""t"":45745},{""key"":""a"",""event"":""keydown"",""t"":45777},{""key"":""a"",""event"":""keydown"",""t"":45822},{""key"":""a"",""event"":""keydown"",""t"":45854},{""key"":""a"",""event"":""keydown"",""t"":45886},{""key"":""a"",""event"":""keydown"",""t"":45916},{""key"":""a"",""event"":""keydown"",""t"":45947},{""key"":""w"",""event"":""keydown"",""t"":45969},{""key"":""a"",""event"":""keyup"",""t"":46018},{""key"":""w"",""event"":""keydown"",""t"":46520},{""key"":""w"",""event"":""keydown"",""t"":46551},{""key"":""w"",""event"":""keydown"",""t"":46599},{""key"":""w"",""event"":""keydown"",""t"":46629},{""key"":""w"",""event"":""keydown"",""t"":46659},{""key"":""w"",""event"":""keydown"",""t"":46690},{""key"":""w"",""event"":""keydown"",""t"":46721},{""key"":""w"",""event"":""keydown"",""t"":46751},{""key"":""w"",""event"":""keydown"",""t"":46798},{""key"":""w"",""event"":""keydown"",""t"":46829},{""key"":""w"",""event"":""keydown"",""t"":46859},{""key"":""w"",""event"":""keydown"",""t"":46890},{""key"":""w"",""event"":""keydown"",""t"":46921},{""key"":""w"",""event"":""keydown"",""t"":46951},{""key"":""w"",""event"":""keydown"",""t"":46984},{""key"":""w"",""event"":""keydown"",""t"":47014},{""key"":""w"",""event"":""keydown"",""t"":47060},{""key"":""w"",""event"":""keydown"",""t"":47091},{""key"":""w"",""event"":""keydown"",""t"":47122},{""key"":""w"",""event"":""keydown"",""t"":47153},{""key"":""w"",""event"":""keydown"",""t"":47184},{""key"":""w"",""event"":""keydown"",""t"":47215},{""key"":""w"",""event"":""keydown"",""t"":47247},{""key"":""w"",""event"":""keydown"",""t"":47278},{""key"":""w"",""event"":""keydown"",""t"":47324},{""key"":""w"",""event"":""keydown"",""t"":47356},{""key"":""w"",""event"":""keydown"",""t"":47385},{""key"":""w"",""event"":""keydown"",""t"":47417},{""key"":""w"",""event"":""keydown"",""t"":47448},{""key"":""w"",""event"":""keydown"",""t"":47478},{""key"":""w"",""event"":""keydown"",""t"":47509},{""key"":""w"",""event"":""keydown"",""t"":47542},{""key"":""w"",""event"":""keydown"",""t"":47588},{""key"":""w"",""event"":""keydown"",""t"":47619},{""key"":""w"",""event"":""keydown"",""t"":47650},{""key"":""w"",""event"":""keydown"",""t"":47682},{""key"":""w"",""event"":""keydown"",""t"":47714},{""key"":""w"",""event"":""keydown"",""t"":47744},{""key"":""w"",""event"":""keydown"",""t"":47775},{""key"":""w"",""event"":""keydown"",""t"":47806},{""key"":""w"",""event"":""keydown"",""t"":47852},{""key"":""w"",""event"":""keydown"",""t"":47886},{""key"":""w"",""event"":""keydown"",""t"":47915},{""key"":""w"",""event"":""keydown"",""t"":47946},{""key"":""w"",""event"":""keydown"",""t"":47976},{""key"":""a"",""event"":""keydown"",""t"":47981},{""key"":""w"",""event"":""keyup"",""t"":48032},{""key"":""a"",""event"":""keydown"",""t"":48532},{""key"":""a"",""event"":""keydown"",""t"":48580},{""key"":""a"",""event"":""keydown"",""t"":48610},{""key"":""a"",""event"":""keydown"",""t"":48640},{""key"":""a"",""event"":""keydown"",""t"":48671},{""key"":""a"",""event"":""keydown"",""t"":48702},{""key"":""a"",""event"":""keydown"",""t"":48733},{""key"":""a"",""event"":""keydown"",""t"":48764},{""key"":""a"",""event"":""keydown"",""t"":48810},{""key"":""a"",""event"":""keydown"",""t"":48842},{""key"":""a"",""event"":""keydown"",""t"":48872},{""key"":""a"",""event"":""keydown"",""t"":48904},{""key"":""a"",""event"":""keydown"",""t"":48936},{""key"":""a"",""event"":""keydown"",""t"":48966},{""key"":""a"",""event"":""keydown"",""t"":48997},{""key"":""a"",""event"":""keydown"",""t"":49028},{""key"":""a"",""event"":""keydown"",""t"":49074},{""key"":""a"",""event"":""keydown"",""t"":49105},{""key"":""a"",""event"":""keydown"",""t"":49136},{""key"":""a"",""event"":""keydown"",""t"":49166},{""key"":""a"",""event"":""keydown"",""t"":49198},{""key"":""a"",""event"":""keydown"",""t"":49229},{""key"":""a"",""event"":""keyup"",""t"":49230},{""key"":"" "",""event"":""keydown"",""t"":51797}]","[]"
"589332","","{""creativity-rating"":2,""creativity-free-response"":""It feels like one of the simplest ideas for a game, it's not fun or entertaining."",""originality-rating"":1,""originality-free-response"":""I've seen this game (or a variation) many times, it's a very simple game, people make it at global game jam a lot. "",""effectiveness-rating"":1,""effectiveness-free-response"":""In the realm of echo visibility games, this was probably one of the worst I've ever played. The echo started where I was when I moved, so it felt like it was lagging behind me, it didn't illuminate much. Some walls seemed unpassable, too. It was like a forced \""labyrinth\"" but also it wasn't even interesting, I \""solved\"" it in one try (did it even have something to stop me?). There was a triangle that seemed to do nothing."",""authenticity-rating"":1,""attention-check"":3,""intentionality-rating"":3,""authenticity-intentionality-free-response"":""As I mentioned, I've seen this game so many times I'm sure everyone knows one or another version, so I don't think there's anything authentic. What I'm not sure, however, is how the developer imagined this, maybe it's not their fault and the AI made it super basic (in other words, there can be a game with a known mechanic that is original and good, but this is the most basic version of this kind of game).""}","evaluation-chat-1-echo","survey","8","1657228","0.0-8.0","566bdeb3beaf21001240085a","6987c292780adf01bb926159","69a516eeb4b96633b18564c6","","","","","","",""
"23756","","{""concept-creativity-rating"":2,""concept-implementation-rating"":1,""question1"":null}","concept-chat-1-echo","survey","9","1680997","0.0-9.0","566bdeb3beaf21001240085a","6987c292780adf01bb926159","69a516eeb4b96633b18564c6","","","","","","",""
"1968","You have completed your evaluation of the second video game.<br><br>Press any key to proceed to the final game.","arrowright","pre-game-three-message","html-keyboard-response","10","1682966","0.0-10.0","566bdeb3beaf21001240085a","6987c292780adf01bb926159","69a516eeb4b96633b18564c6","","","","","","",""
"75522","","","game-claude-2-moth","plugin-game-iframe","11","1758496","0.0-11.0","566bdeb3beaf21001240085a","6987c292780adf01bb926159","69a516eeb4b96633b18564c6","game-complete","end:clean","{""stage"":""end:clean"",""detail"":{""endType"":""clean"",""dependency"":0.21207080000000006,""gameTime"":60.55014999999968}}","{""result"":""win"",""endType"":""clean"",""dependency"":0.21207080000000006,""mothsFollowing"":0}","null","[{""key"":""ArrowRight"",""event"":""keyup"",""t"":110},{""key"":"" "",""event"":""keydown"",""t"":3287},{""key"":"" "",""event"":""keyup"",""t"":3396},{""key"":"" "",""event"":""keydown"",""t"":5798},{""key"":"" "",""event"":""keyup"",""t"":5948},{""key"":"" "",""event"":""keydown"",""t"":6302},{""key"":"" "",""event"":""keydown"",""t"":6812},{""key"":"" "",""event"":""keydown"",""t"":6834},{""key"":"" "",""event"":""keydown"",""t"":6875},{""key"":"" "",""event"":""keydown"",""t"":6895},{""key"":"" "",""event"":""keydown"",""t"":6937},{""key"":"" "",""event"":""keydown"",""t"":6959},{""key"":"" "",""event"":""keydown"",""t"":7001},{""key"":"" "",""event"":""keydown"",""t"":7043},{""key"":"" "",""event"":""keydown"",""t"":7066},{""key"":"" "",""event"":""keyup"",""t"":7111},{""key"":""a"",""event"":""keydown"",""t"":7448},{""key"":""a"",""event"":""keyup"",""t"":7865},{""key"":""ArrowRight"",""event"":""keydown"",""t"":8542},{""key"":""ArrowRight"",""event"":""keyup"",""t"":8707},{""key"":""ArrowRight"",""event"":""keydown"",""t"":9179},{""key"":""ArrowRight"",""event"":""keyup"",""t"":9241},{""key"":""ArrowLeft"",""event"":""keydown"",""t"":10078},{""key"":""ArrowLeft"",""event"":""keyup"",""t"":10272},{""key"":""ArrowRight"",""event"":""keydown"",""t"":15165},{""key"":""ArrowRight"",""event"":""keyup"",""t"":15294},{""key"":"" "",""event"":""keydown"",""t"":16181},{""key"":"" "",""event"":""keydown"",""t"":16700},{""key"":"" "",""event"":""keydown"",""t"":16724},{""key"":"" "",""event"":""keydown"",""t"":16769},{""key"":"" "",""event"":""keydown"",""t"":16792},{""key"":"" "",""event"":""keydown"",""t"":16814},{""key"":"" "",""event"":""keydown"",""t"":16857},{""key"":"" "",""event"":""keydown"",""t"":16899},{""key"":"" "",""event"":""keydown"",""t"":16942},{""key"":"" "",""event"":""keyup"",""t"":16942},{""key"":""ArrowLeft"",""event"":""keydown"",""t"":17658},{""key"":""ArrowLeft"",""event"":""keyup"",""t"":17866},{""key"":""ArrowRight"",""event"":""keydown"",""t"":18308},{""key"":""ArrowRight"",""event"":""keyup"",""t"":18417},{""key"":""ArrowLeft"",""event"":""keydown"",""t"":18439},{""key"":""ArrowLeft"",""event"":""keydown"",""t"":18944},{""key"":""ArrowLeft"",""event"":""keydown"",""t"":18989},{""key"":""ArrowLeft"",""event"":""keydown"",""t"":19011},{""key"":""ArrowLeft"",""event"":""keydown"",""t"":19054},{""key"":""ArrowLeft"",""event"":""keydown"",""t"":19076},{""key"":""ArrowLeft"",""event"":""keydown"",""t"":19097},{""key"":""ArrowLeft"",""event"":""keydown"",""t"":19140},{""key"":""ArrowLeft"",""event"":""keyup"",""t"":19161},{""key"":""ArrowRight"",""event"":""keydown"",""t"":19449},{""key"":""ArrowRight"",""event"":""keyup"",""t"":19697},{""key"":"" "",""event"":""keydown"",""t"":19908},{""key"":"" "",""event"":""keyup"",""t"":20189},{""key"":""ArrowLeft"",""event"":""keydown"",""t"":20296},{""key"":""ArrowLeft"",""event"":""keydown"",""t"":20801},{""key"":""ArrowLeft"",""event"":""keydown"",""t"":20843},{""key"":""ArrowLeft"",""event"":""keydown"",""t"":20864},{""key"":""ArrowLeft"",""event"":""keydown"",""t"":20906},{""key"":""ArrowLeft"",""event"":""keydown"",""t"":20949},{""key"":""ArrowLeft"",""event"":""keydown"",""t"":20969},{""key"":""ArrowLeft"",""event"":""keydown"",""t"":21011},{""key"":""ArrowLeft"",""event"":""keydown"",""t"":21033},{""key"":""ArrowLeft"",""event"":""keydown"",""t"":21075},{""key"":""ArrowLeft"",""event"":""keydown"",""t"":21097},{""key"":""ArrowLeft"",""event"":""keyup"",""t"":21097},{""key"":"" "",""event"":""keydown"",""t"":21456},{""key"":"" "",""event"":""keydown"",""t"":21961},{""key"":"" "",""event"":""keydown"",""t"":22004},{""key"":"" "",""event"":""keydown"",""t"":22026},{""key"":"" "",""event"":""keydown"",""t"":22068},{""key"":"" "",""event"":""keydown"",""t"":22090},{""key"":"" "",""event"":""keydown"",""t"":22133},{""key"":"" "",""event"":""keydown"",""t"":22176},{""key"":"" "",""event"":""keyup"",""t"":22199},{""key"":""ArrowRight"",""event"":""keydown"",""t"":22221},{""key"":""ArrowRight"",""event"":""keydown"",""t"":22710},{""key"":""ArrowRight"",""event"":""keydown"",""t"":22754},{""key"":""ArrowRight"",""event"":""keydown"",""t"":22777},{""key"":""ArrowRight"",""event"":""keydown"",""t"":22821},{""key"":""ArrowRight"",""event"":""keydown"",""t"":22865},{""key"":""ArrowRight"",""event"":""keydown"",""t"":22887},{""key"":""ArrowRight"",""event"":""keydown"",""t"":22931},{""key"":""ArrowRight"",""event"":""keydown"",""t"":22953},{""key"":""ArrowRight"",""event"":""keydown"",""t"":22975},{""key"":""ArrowRight"",""event"":""keydown"",""t"":23019},{""key"":""ArrowRight"",""event"":""keyup"",""t"":23042},{""key"":"" "",""event"":""keydown"",""t"":23298},{""key"":"" "",""event"":""keydown"",""t"":23804},{""key"":"" "",""event"":""keydown"",""t"":23825},{""key"":"" "",""event"":""keydown"",""t"":23866},{""key"":"" "",""event"":""keydown"",""t"":23907},{""key"":"" "",""event"":""keydown"",""t"":23928},{""key"":"" "",""event"":""keydown"",""t"":23968},{""key"":"" "",""event"":""keydown"",""t"":23989},{""key"":"" "",""event"":""keydown"",""t"":24030},{""key"":"" "",""event"":""keydown"",""t"":24072},{""key"":"" "",""event"":""keydown"",""t"":24093},{""key"":"" "",""event"":""keydown"",""t"":24135},{""key"":"" "",""event"":""keydown"",""t"":24157},{""key"":"" "",""event"":""keydown"",""t"":24199},{""key"":"" "",""event"":""keydown"",""t"":24221},{""key"":"" "",""event"":""keydown"",""t"":24262},{""key"":"" "",""event"":""keydown"",""t"":24303},{""key"":"" "",""event"":""keydown"",""t"":24325},{""key"":"" "",""event"":""keydown"",""t"":24368},{""key"":"" "",""event"":""keydown"",""t"":24388},{""key"":"" "",""event"":""keydown"",""t"":24429},{""key"":"" "",""event"":""keydown"",""t"":24450},{""key"":"" "",""event"":""keyup"",""t"":24470},{""key"":""ArrowRight"",""event"":""keydown"",""t"":25502},{""key"":""ArrowRight"",""event"":""keydown"",""t"":26007},{""key"":""ArrowRight"",""event"":""keydown"",""t"":26029},{""key"":""ArrowRight"",""event"":""keydown"",""t"":26073},{""key"":""ArrowRight"",""event"":""keydown"",""t"":26117},{""key"":""ArrowRight"",""event"":""keydown"",""t"":26139},{""key"":""ArrowRight"",""event"":""keydown"",""t"":26161},{""key"":""ArrowRight"",""event"":""keydown"",""t"":26205},{""key"":""ArrowRight"",""event"":""keyup"",""t"":26227},{""key"":""ArrowLeft"",""event"":""keydown"",""t"":26377},{""key"":""ArrowLeft"",""event"":""keydown"",""t"":26872},{""key"":""ArrowLeft"",""event"":""keydown"",""t"":26917},{""key"":""ArrowLeft"",""event"":""keydown"",""t"":26961},{""key"":""ArrowLeft"",""event"":""keydown"",""t"":26983},{""key"":""ArrowLeft"",""event"":""keydown"",""t"":27004},{""key"":""ArrowLeft"",""event"":""keydown"",""t"":27047},{""key"":""ArrowLeft"",""event"":""keydown"",""t"":27069},{""key"":""ArrowLeft"",""event"":""keydown"",""t"":27113},{""key"":""ArrowLeft"",""event"":""keyup"",""t"":27135},{""key"":""ArrowRight"",""event"":""keydown"",""t"":27310},{""key"":""ArrowRight"",""event"":""keyup"",""t"":27723},{""key"":"" "",""event"":""keydown"",""t"":28006},{""key"":"" "",""event"":""keyup"",""t"":28434},{""key"":""ArrowLeft"",""event"":""keydown"",""t"":28727},{""key"":""ArrowLeft"",""event"":""keyup"",""t"":29121},{""key"":""ArrowRight"",""event"":""keydown"",""t"":29564},{""key"":""ArrowRight"",""event"":""keydown"",""t"":30089},{""key"":""ArrowRight"",""event"":""keydown"",""t"":30112},{""key"":""ArrowRight"",""event"":""keydown"",""t"":30134},{""key"":""ArrowRight"",""event"":""keyup"",""t"":30156},{""key"":"" "",""event"":""keydown"",""t"":30518},{""key"":"" "",""event"":""keydown"",""t"":31007},{""key"":"" "",""event"":""keydown"",""t"":31051},{""key"":"" "",""event"":""keydown"",""t"":31073},{""key"":"" "",""event"":""keydown"",""t"":31116},{""key"":"" "",""event"":""keydown"",""t"":31161},{""key"":"" "",""event"":""keydown"",""t"":31183},{""key"":"" "",""event"":""keydown"",""t"":31204},{""key"":"" "",""event"":""keydown"",""t"":31246},{""key"":"" "",""event"":""keydown"",""t"":31269},{""key"":"" "",""event"":""keydown"",""t"":31311},{""key"":"" "",""event"":""keydown"",""t"":31335},{""key"":"" "",""event"":""keydown"",""t"":31379},{""key"":"" "",""event"":""keyup"",""t"":31400},{""key"":""ArrowLeft"",""event"":""keydown"",""t"":31464},{""key"":""ArrowLeft"",""event"":""keydown"",""t"":31968},{""key"":""ArrowLeft"",""event"":""keydown"",""t"":32010},{""key"":""ArrowLeft"",""event"":""keydown"",""t"":32052},{""key"":""ArrowLeft"",""event"":""keydown"",""t"":32073},{""key"":""ArrowLeft"",""event"":""keydown"",""t"":32115},{""key"":""ArrowLeft"",""event"":""keyup"",""t"":32136},{""key"":""ArrowRight"",""event"":""keydown"",""t"":32305},{""key"":""ArrowRight"",""event"":""keyup"",""t"":32776},{""key"":"" "",""event"":""keydown"",""t"":32992},{""key"":"" "",""event"":""keydown"",""t"":33506},{""key"":"" "",""event"":""keydown"",""t"":33549},{""key"":"" "",""event"":""keydown"",""t"":33571},{""key"":"" "",""event"":""keydown"",""t"":33616},{""key"":"" "",""event"":""keydown"",""t"":33638},{""key"":"" "",""event"":""keydown"",""t"":33661},{""key"":"" "",""event"":""keydown"",""t"":33705},{""key"":"" "",""event"":""keydown"",""t"":33726},{""key"":"" "",""event"":""keydown"",""t"":33769},{""key"":"" "",""event"":""keyup"",""t"":33769},{""key"":""ArrowRight"",""event"":""keydown"",""t"":34020},{""key"":""ArrowRight"",""event"":""keyup"",""t"":34493},{""key"":""ArrowLeft"",""event"":""keydown"",""t"":35839},{""key"":""ArrowLeft"",""event"":""keyup"",""t"":36097},{""key"":"" "",""event"":""keydown"",""t"":36429},{""key"":"" "",""event"":""keyup"",""t"":36511},{""key"":""ArrowLeft"",""event"":""keydown"",""t"":36676},{""key"":""ArrowLeft"",""event"":""keydown"",""t"":37196},{""key"":""ArrowLeft"",""event"":""keydown"",""t"":37218},{""key"":""ArrowLeft"",""event"":""keyup"",""t"":37240},{""key"":""ArrowLeft"",""event"":""keydown"",""t"":38132},{""key"":""ArrowRight"",""event"":""keydown"",""t"":38200},{""key"":""ArrowLeft"",""event"":""keyup"",""t"":38224},{""key"":""ArrowRight"",""event"":""keydown"",""t"":38752},{""key"":""ArrowRight"",""event"":""keydown"",""t"":38774},{""key"":""ArrowRight"",""event"":""keydown"",""t"":38819},{""key"":""ArrowRight"",""event"":""keydown"",""t"":38842},{""key"":""ArrowRight"",""event"":""keydown"",""t"":38864},{""key"":""ArrowRight"",""event"":""keydown"",""t"":38907},{""key"":""ArrowRight"",""event"":""keydown"",""t"":38928},{""key"":""ArrowRight"",""event"":""keydown"",""t"":38971},{""key"":""ArrowRight"",""event"":""keydown"",""t"":39014},{""key"":""ArrowRight"",""event"":""keydown"",""t"":39037},{""key"":""ArrowRight"",""event"":""keydown"",""t"":39080},{""key"":""ArrowRight"",""event"":""keydown"",""t"":39102},{""key"":""ArrowRight"",""event"":""keyup"",""t"":39124},{""key"":"" "",""event"":""keydown"",""t"":39491},{""key"":"" "",""event"":""keydown"",""t"":40000},{""key"":"" "",""event"":""keydown"",""t"":40044},{""key"":"" "",""event"":""keyup"",""t"":40066},{""key"":""ArrowLeft"",""event"":""keydown"",""t"":41394},{""key"":""ArrowLeft"",""event"":""keydown"",""t"":41892},{""key"":""ArrowLeft"",""event"":""keydown"",""t"":41955},{""key"":""ArrowLeft"",""event"":""keydown"",""t"":41976},{""key"":""ArrowLeft"",""event"":""keydown"",""t"":42019},{""key"":""ArrowLeft"",""event"":""keyup"",""t"":42019},{""key"":""ArrowLeft"",""event"":""keydown"",""t"":42453},{""key"":""ArrowLeft"",""event"":""keydown"",""t"":42972},{""key"":""ArrowLeft"",""event"":""keydown"",""t"":42995},{""key"":""ArrowLeft"",""event"":""keydown"",""t"":43018},{""key"":""ArrowLeft"",""event"":""keydown"",""t"":43063},{""key"":""ArrowLeft"",""event"":""keydown"",""t"":43087},{""key"":""ArrowLeft"",""event"":""keydown"",""t"":43110},{""key"":""ArrowLeft"",""event"":""keydown"",""t"":43156},{""key"":""ArrowLeft"",""event"":""keydown"",""t"":43179},{""key"":""ArrowLeft"",""event"":""keydown"",""t"":43225},{""key"":""ArrowLeft"",""event"":""keydown"",""t"":43248},{""key"":""ArrowLeft"",""event"":""keydown"",""t"":43294},{""key"":""ArrowLeft"",""event"":""keydown"",""t"":43317},{""key"":""ArrowLeft"",""event"":""keydown"",""t"":43340},{""key"":""ArrowLeft"",""event"":""keydown"",""t"":43386},{""key"":""ArrowLeft"",""event"":""keyup"",""t"":43410},{""key"":"" "",""event"":""keydown"",""t"":43589},{""key"":"" "",""event"":""keyup"",""t"":43905},{""key"":""ArrowRight"",""event"":""keydown"",""t"":46487},{""key"":""ArrowRight"",""event"":""keydown"",""t"":46988},{""key"":""ArrowRight"",""event"":""keydown"",""t"":47031},{""key"":""ArrowRight"",""event"":""keydown"",""t"":47054},{""key"":""ArrowRight"",""event"":""keydown"",""t"":47076},{""key"":""ArrowRight"",""event"":""keydown"",""t"":47119},{""key"":""ArrowRight"",""event"":""keydown"",""t"":47141},{""key"":""ArrowRight"",""event"":""keydown"",""t"":47186},{""key"":""ArrowRight"",""event"":""keydown"",""t"":47232},{""key"":""ArrowRight"",""event"":""keydown"",""t"":47256},{""key"":""ArrowRight"",""event"":""keydown"",""t"":47279},{""key"":""ArrowRight"",""event"":""keydown"",""t"":47326},{""key"":""ArrowRight"",""event"":""keydown"",""t"":47349},{""key"":""ArrowRight"",""event"":""keydown"",""t"":47372},{""key"":""ArrowRight"",""event"":""keydown"",""t"":47417},{""key"":""ArrowRight"",""event"":""keydown"",""t"":47461},{""key"":""ArrowRight"",""event"":""keydown"",""t"":47484},{""key"":""ArrowRight"",""event"":""keydown"",""t"":47529},{""key"":""ArrowRight"",""event"":""keydown"",""t"":47551},{""key"":""ArrowRight"",""event"":""keydown"",""t"":47574},{""key"":""ArrowRight"",""event"":""keydown"",""t"":47620},{""key"":""ArrowRight"",""event"":""keydown"",""t"":47643},{""key"":""ArrowRight"",""event"":""keydown"",""t"":47665},{""key"":""ArrowRight"",""event"":""keydown"",""t"":47712},{""key"":""ArrowRight"",""event"":""keydown"",""t"":47758},{""key"":""ArrowRight"",""event"":""keydown"",""t"":47781},{""key"":""ArrowRight"",""event"":""keydown"",""t"":47828},{""key"":""ArrowRight"",""event"":""keydown"",""t"":47853},{""key"":""ArrowRight"",""event"":""keydown"",""t"":47876},{""key"":""ArrowRight"",""event"":""keydown"",""t"":47899},{""key"":""ArrowRight"",""event"":""keydown"",""t"":47945},{""key"":""ArrowRight"",""event"":""keydown"",""t"":47990},{""key"":""ArrowRight"",""event"":""keydown"",""t"":48014},{""key"":""ArrowRight"",""event"":""keydown"",""t"":48037},{""key"":""ArrowRight"",""event"":""keydown"",""t"":48083},{""key"":""ArrowRight"",""event"":""keydown"",""t"":48105},{""key"":""ArrowRight"",""event"":""keydown"",""t"":48151},{""key"":""ArrowRight"",""event"":""keydown"",""t"":48174},{""key"":""ArrowRight"",""event"":""keydown"",""t"":48197},{""key"":""ArrowRight"",""event"":""keydown"",""t"":48241},{""key"":""ArrowRight"",""event"":""keydown"",""t"":48284},{""key"":""ArrowRight"",""event"":""keydown"",""t"":48306},{""key"":""ArrowRight"",""event"":""keydown"",""t"":48352},{""key"":""ArrowRight"",""event"":""keydown"",""t"":48374},{""key"":""ArrowRight"",""event"":""keydown"",""t"":48398},{""key"":""ArrowRight"",""event"":""keydown"",""t"":48443},{""key"":""ArrowRight"",""event"":""keydown"",""t"":48466},{""key"":""ArrowRight"",""event"":""keydown"",""t"":48509},{""key"":""ArrowRight"",""event"":""keydown"",""t"":48553},{""key"":""ArrowRight"",""event"":""keydown"",""t"":48575},{""key"":""ArrowRight"",""event"":""keydown"",""t"":48618},{""key"":""ArrowRight"",""event"":""keydown"",""t"":48641},{""key"":""ArrowRight"",""event"":""keydown"",""t"":48663},{""key"":""ArrowRight"",""event"":""keydown"",""t"":48706},{""key"":""ArrowRight"",""event"":""keydown"",""t"":48727},{""key"":""ArrowRight"",""event"":""keydown"",""t"":48768},{""key"":""ArrowRight"",""event"":""keydown"",""t"":48791},{""key"":""ArrowRight"",""event"":""keydown"",""t"":48834},{""key"":""ArrowRight"",""event"":""keydown"",""t"":48877},{""key"":""ArrowRight"",""event"":""keydown"",""t"":48898},{""key"":""ArrowRight"",""event"":""keydown"",""t"":48941},{""key"":""ArrowRight"",""event"":""keydown"",""t"":48962},{""key"":""ArrowRight"",""event"":""keydown"",""t"":49004},{""key"":""ArrowRight"",""event"":""keydown"",""t"":49025},{""key"":""ArrowRight"",""event"":""keydown"",""t"":49066},{""key"":""ArrowRight"",""event"":""keydown"",""t"":49087},{""key"":""ArrowRight"",""event"":""keydown"",""t"":49149},{""key"":""ArrowRight"",""event"":""keydown"",""t"":49170},{""key"":""ArrowRight"",""event"":""keydown"",""t"":49212},{""key"":""ArrowRight"",""event"":""keydown"",""t"":49233},{""key"":""ArrowRight"",""event"":""keydown"",""t"":49254},{""key"":""ArrowRight"",""event"":""keyup"",""t"":49275},{""key"":"" "",""event"":""keydown"",""t"":50340},{""key"":"" "",""event"":""keydown"",""t"":50850},{""key"":"" "",""event"":""keydown"",""t"":50894},{""key"":"" "",""event"":""keydown"",""t"":50916},{""key"":"" "",""event"":""keydown"",""t"":50961},{""key"":"" "",""event"":""keyup"",""t"":50961},{""key"":""ArrowLeft"",""event"":""keydown"",""t"":51879},{""key"":""ArrowLeft"",""event"":""keydown"",""t"":52384},{""key"":""ArrowLeft"",""event"":""keydown"",""t"":52407},{""key"":""ArrowLeft"",""event"":""keydown"",""t"":52451},{""key"":""ArrowLeft"",""event"":""keydown"",""t"":52473},{""key"":""ArrowLeft"",""event"":""keydown"",""t"":52518},{""key"":""ArrowLeft"",""event"":""keydown"",""t"":52540},{""key"":""ArrowLeft"",""event"":""keydown"",""t"":52584},{""key"":""ArrowLeft"",""event"":""keydown"",""t"":52607},{""key"":""ArrowLeft"",""event"":""keydown"",""t"":52653},{""key"":""ArrowLeft"",""event"":""keydown"",""t"":52675},{""key"":""ArrowLeft"",""event"":""keydown"",""t"":52697},{""key"":""ArrowLeft"",""event"":""keydown"",""t"":52741},{""key"":""ArrowLeft"",""event"":""keydown"",""t"":52785},{""key"":""ArrowLeft"",""event"":""keydown"",""t"":52807},{""key"":""ArrowLeft"",""event"":""keydown"",""t"":52852},{""key"":""ArrowLeft"",""event"":""keydown"",""t"":52875},{""key"":""ArrowLeft"",""event"":""keydown"",""t"":52897},{""key"":""ArrowLeft"",""event"":""keydown"",""t"":52944},{""key"":""ArrowLeft"",""event"":""keydown"",""t"":52966},{""key"":""ArrowLeft"",""event"":""keydown"",""t"":53012},{""key"":""ArrowLeft"",""event"":""keydown"",""t"":53057},{""key"":""ArrowLeft"",""event"":""keydown"",""t"":53079},{""key"":""ArrowLeft"",""event"":""keydown"",""t"":53102},{""key"":""ArrowLeft"",""event"":""keydown"",""t"":53146},{""key"":""ArrowLeft"",""event"":""keydown"",""t"":53168},{""key"":""ArrowLeft"",""event"":""keydown"",""t"":53212},{""key"":""ArrowLeft"",""event"":""keydown"",""t"":53234},{""key"":""ArrowLeft"",""event"":""keyup"",""t"":53234},{""key"":""ArrowRight"",""event"":""keydown"",""t"":53513},{""key"":""ArrowRight"",""event"":""keyup"",""t"":53828},{""key"":"" "",""event"":""keydown"",""t"":53933},{""key"":"" "",""event"":""keyup"",""t"":54334},{""key"":""ArrowLeft"",""event"":""keydown"",""t"":54807},{""key"":""ArrowLeft"",""event"":""keyup"",""t"":55254},{""key"":""ArrowLeft"",""event"":""keydown"",""t"":55891},{""key"":""ArrowLeft"",""event"":""keyup"",""t"":56333},{""key"":"" "",""event"":""keydown"",""t"":56488},{""key"":"" "",""event"":""keyup"",""t"":56919},{""key"":"" "",""event"":""keydown"",""t"":58276},{""key"":"" "",""event"":""keydown"",""t"":58798},{""key"":"" "",""event"":""keydown"",""t"":58820},{""key"":"" "",""event"":""keydown"",""t"":58841},{""key"":"" "",""event"":""keydown"",""t"":58884},{""key"":"" "",""event"":""keydown"",""t"":58906},{""key"":"" "",""event"":""keydown"",""t"":58949},{""key"":"" "",""event"":""keydown"",""t"":58970},{""key"":"" "",""event"":""keydown"",""t"":59015},{""key"":"" "",""event"":""keydown"",""t"":59058},{""key"":"" "",""event"":""keydown"",""t"":59081},{""key"":"" "",""event"":""keydown"",""t"":59125},{""key"":"" "",""event"":""keydown"",""t"":59146},{""key"":"" "",""event"":""keydown"",""t"":59168},{""key"":"" "",""event"":""keydown"",""t"":59211},{""key"":"" "",""event"":""keydown"",""t"":59233},{""key"":"" "",""event"":""keydown"",""t"":59276},{""key"":"" "",""event"":""keydown"",""t"":59319},{""key"":"" "",""event"":""keydown"",""t"":59343},{""key"":"" "",""event"":""keydown"",""t"":59388},{""key"":"" "",""event"":""keydown"",""t"":59409},{""key"":"" "",""event"":""keydown"",""t"":59431},{""key"":"" "",""event"":""keydown"",""t"":59475},{""key"":"" "",""event"":""keydown"",""t"":59497},{""key"":"" "",""event"":""keydown"",""t"":59540},{""key"":"" "",""event"":""keydown"",""t"":59583},{""key"":"" "",""event"":""keydown"",""t"":59605},{""key"":"" "",""event"":""keydown"",""t"":59648},{""key"":"" "",""event"":""keydown"",""t"":59671},{""key"":"" "",""event"":""keydown"",""t"":59716},{""key"":"" "",""event"":""keydown"",""t"":59739},{""key"":"" "",""event"":""keydown"",""t"":59762},{""key"":"" "",""event"":""keydown"",""t"":59808},{""key"":"" "",""event"":""keydown"",""t"":59859},{""key"":"" "",""event"":""keydown"",""t"":59887},{""key"":"" "",""event"":""keydown"",""t"":59912},{""key"":"" "",""event"":""keydown"",""t"":59937},{""key"":"" "",""event"":""keydown"",""t"":59961},{""key"":"" "",""event"":""keydown"",""t"":60008},{""key"":"" "",""event"":""keydown"",""t"":60031},{""key"":"" "",""event"":""keydown"",""t"":60054},{""key"":"" "",""event"":""keydown"",""t"":60100},{""key"":"" "",""event"":""keydown"",""t"":60147},{""key"":"" "",""event"":""keydown"",""t"":60170},{""key"":"" "",""event"":""keydown"",""t"":60195},{""key"":"" "",""event"":""keydown"",""t"":60245},{""key"":"" "",""event"":""keydown"",""t"":60268},{""key"":"" "",""event"":""keydown"",""t"":60291},{""key"":"" "",""event"":""keydown"",""t"":60337},{""key"":"" "",""event"":""keydown"",""t"":60383},{""key"":"" "",""event"":""keydown"",""t"":60407},{""key"":"" "",""event"":""keydown"",""t"":60430},{""key"":"" "",""event"":""keydown"",""t"":60476},{""key"":"" "",""event"":""keydown"",""t"":60498},{""key"":"" "",""event"":""keydown"",""t"":60521},{""key"":"" "",""event"":""keydown"",""t"":60569},{""key"":"" "",""event"":""keydown"",""t"":60592},{""key"":"" "",""event"":""keydown"",""t"":60637},{""key"":"" "",""event"":""keydown"",""t"":60661},{""key"":"" "",""event"":""keydown"",""t"":60706},{""key"":"" "",""event"":""keydown"",""t"":60728},{""key"":"" "",""event"":""keydown"",""t"":60750},{""key"":"" "",""event"":""keydown"",""t"":60795},{""key"":"" "",""event"":""keydown"",""t"":60817},{""key"":"" "",""event"":""keyup"",""t"":60863},{""key"":"" "",""event"":""keydown"",""t"":61040},{""key"":"" "",""event"":""keyup"",""t"":61128},{""key"":"" "",""event"":""keydown"",""t"":61237},{""key"":"" "",""event"":""keyup"",""t"":61301},{""key"":"" "",""event"":""keydown"",""t"":61407},{""key"":"" "",""event"":""keyup"",""t"":61512},{""key"":"" "",""event"":""keydown"",""t"":61575},{""key"":"" "",""event"":""keyup"",""t"":61679},{""key"":"" "",""event"":""keydown"",""t"":61761},{""key"":"" "",""event"":""keyup"",""t"":61845},{""key"":"" "",""event"":""keydown"",""t"":61949},{""key"":"" "",""event"":""keyup"",""t"":62056},{""key"":"" "",""event"":""keydown"",""t"":62139},{""key"":"" "",""event"":""keyup"",""t"":62289},{""key"":""ArrowRight"",""event"":""keydown"",""t"":63234},{""key"":""ArrowRight"",""event"":""keyup"",""t"":63549},{""key"":"" "",""event"":""keydown"",""t"":63966},{""key"":"" "",""event"":""keydown"",""t"":64469},{""key"":"" "",""event"":""keydown"",""t"":64514},{""key"":"" "",""event"":""keydown"",""t"":64536},{""key"":"" "",""event"":""keydown"",""t"":64559},{""key"":"" "",""event"":""keydown"",""t"":64603},{""key"":"" "",""event"":""keydown"",""t"":64625},{""key"":"" "",""event"":""keydown"",""t"":64671},{""key"":""ArrowLeft"",""event"":""keydown"",""t"":64671},{""key"":"" "",""event"":""keyup"",""t"":64853},{""key"":""ArrowLeft"",""event"":""keyup"",""t"":64994},{""key"":""Enter"",""event"":""keydown"",""t"":75516}]","[]"
"280930","","{""creativity-rating"":2,""creativity-free-response"":""This was super random, not even a tutorial dares to end up with this. What's even the score?"",""originality-rating"":1,""originality-free-response"":""There are some chinese 1000 games in 1 little portable games that have like 100 versions of tetris, a 100 versions of pong, and like 300 versions of this game, which is just move left or right and avoid obstacles. We call it \""the game of the little car\"" in Mexico, and \""the simplest tutorial game\"" in our game workshop (well, but that one has a score and it gets more difficult)."",""effectiveness-rating"":2,""effectiveness-free-response"":""I mean, there's a reason why there's 300 versions of it on those machines. It's not the most fun game, but it's entertaining. This one lacked score, difficulty ramp-up or anything good. I thought the lights were powerups, then I thought the rectangles were speed ups. What were the rectangles, even?"",""authenticity-rating"":1,""attention-check"":3,""intentionality-rating"":1,""authenticity-intentionality-free-response"":""This is just the same game of always, there's no way the prompter didn't know what they were doing.""}","evaluation-claude-2-moth","survey","12","2039445","0.0-12.0","566bdeb3beaf21001240085a","6987c292780adf01bb926159","69a516eeb4b96633b18564c6","","","","","","",""
"33481","","{""concept-implementation-rating"":1,""concept-creativity-rating"":1,""question1"":null}","concept-claude-2-moth","survey","13","2072940","0.0-13.0","566bdeb3beaf21001240085a","6987c292780adf01bb926159","69a516eeb4b96633b18564c6","","","","","","",""
"1695","You have completed all of the games!<br><br>Press any key to proceed to some final questions before returning to Prolific."," ","pre-baseline-questions","html-keyboard-response","14","2074635","0.0-14.0","566bdeb3beaf21001240085a","6987c292780adf01bb926159","69a516eeb4b96633b18564c6","","","","","","",""
"32374","","{""baseline_originality_rating"":4,""baseline_effectiveness_rating"":5,""baseline_authenticity_rating"":4,""baseline_intentionality_rating"":4}","baseline-questions-rating","survey","15","2107020","0.0-15.0","566bdeb3beaf21001240085a","6987c292780adf01bb926159","69a516eeb4b96633b18564c6","","","","","","",""
"28662","","{""ai_aware_question"":""Not at all, I do vibe coding myself. One would imagine that without the code restrictions the games would be better, but alas.""}","ai-aware-question","survey","16","2135688","0.0-16.0","566bdeb3beaf21001240085a","6987c292780adf01bb926159","69a516eeb4b96633b18564c6","","","","","","",""
"3706","
        <p> You have completed the experiment! Press any key to save your data and get redirected back to Prolific. <strong>Please do not close the page until you have been redirected to Prolific.</strong> <p>
      "," ","goodbye","html-keyboard-response","17","2139395","0.0-17.0","566bdeb3beaf21001240085a","6987c292780adf01bb926159","69a516eeb4b96633b18564c6","","","","","","",""
