"rt","stimulus","response","phase","trial_type","trial_index","time_elapsed","internal_node_id","prolific_subject_id","study_id","session_id","exit_reason","exit_stage","exit_progress","game_data","emergency_text","keystrokes","mouse_events"
"12800","Welcome! In this study, you will play three short video games, completing a short survey after each game.<br><br>Please make sure you are in a quiet environment where you can focus for the duration of the study. Some games may use sound, so please ensure that your device's volume is not muted.<br><br>Press any key to begin."," ","welcome-message","html-keyboard-response","0","12812","0.0-0.0","66b7c04e75051c539d8b4776","6987c292780adf01bb926159","69a4faf7c0f59a7d4b16af53","","","","","","",""
"46472","","{""commitment-check"":[""yes""]}","commitment-check","survey","1","59362","0.0-1.0","66b7c04e75051c539d8b4776","6987c292780adf01bb926159","69a4faf7c0f59a7d4b16af53","","","","","","",""
"14772","Press any key to proceed to the first video game. Should you encounter a game-breaking bug, please report the issue in the Menu tab to the right of the screen."," ","pre-game-one-message","html-keyboard-response","2","74135","0.0-2.0","66b7c04e75051c539d8b4776","6987c292780adf01bb926159","69a4faf7c0f59a7d4b16af53","","","","","","",""
"48197","","","game-gemini-2-patch","plugin-game-iframe","3","122336","0.0-3.0","66b7c04e75051c539d8b4776","6987c292780adf01bb926159","69a4faf7c0f59a7d4b16af53","emergency-exit","null","null","null","connection denied","[{""key"":"" "",""event"":""keyup"",""t"":113},{""key"":""c"",""event"":""keydown"",""t"":43085},{""key"":""c"",""event"":""keyup"",""t"":43205},{""key"":""o"",""event"":""keydown"",""t"":43231},{""key"":""o"",""event"":""keyup"",""t"":43308},{""key"":""n"",""event"":""keydown"",""t"":43466},{""key"":""n"",""event"":""keyup"",""t"":43523},{""key"":""n"",""event"":""keydown"",""t"":43595},{""key"":""e"",""event"":""keydown"",""t"":43680},{""key"":""n"",""event"":""keyup"",""t"":43692},{""key"":""e"",""event"":""keyup"",""t"":43770},{""key"":""c"",""event"":""keydown"",""t"":43887},{""key"":""c"",""event"":""keyup"",""t"":43988},{""key"":""t"",""event"":""keydown"",""t"":44119},{""key"":""i"",""event"":""keydown"",""t"":44178},{""key"":""t"",""event"":""keyup"",""t"":44188},{""key"":""i"",""event"":""keyup"",""t"":44258},{""key"":""o"",""event"":""keydown"",""t"":44342},{""key"":""o"",""event"":""keyup"",""t"":44414},{""key"":""n"",""event"":""keydown"",""t"":45300},{""key"":""n"",""event"":""keyup"",""t"":45411},{""key"":"" "",""event"":""keydown"",""t"":45917},{""key"":"" "",""event"":""keyup"",""t"":46019},{""key"":""d"",""event"":""keydown"",""t"":46191},{""key"":""d"",""event"":""keyup"",""t"":46255},{""key"":""e"",""event"":""keydown"",""t"":46348},{""key"":""n"",""event"":""keydown"",""t"":46414},{""key"":""e"",""event"":""keyup"",""t"":46424},{""key"":""n"",""event"":""keyup"",""t"":46512},{""key"":""i"",""event"":""keydown"",""t"":46612},{""key"":""i"",""event"":""keyup"",""t"":46692},{""key"":""e"",""event"":""keydown"",""t"":46714},{""key"":""e"",""event"":""keyup"",""t"":46794},{""key"":""d"",""event"":""keydown"",""t"":46890},{""key"":""d"",""event"":""keyup"",""t"":46982}]","[]"
"135434","","{""creativity-rating"":3,""creativity-free-response"":""There was a technical issue with the game, connection denied. "",""originality-rating"":3,""originality-free-response"":""I can not rate that because I could not played the game, connection denied. Technical issue."",""effectiveness-rating"":3,""effectiveness-free-response"":""The game connection was denied"",""authenticity-rating"":3,""attention-check"":3,""intentionality-rating"":3,""authenticity-intentionality-free-response"":""The game presented technical issues.""}","evaluation-gemini-2-patch","survey","4","257847","0.0-4.0","66b7c04e75051c539d8b4776","6987c292780adf01bb926159","69a4faf7c0f59a7d4b16af53","","","","","","",""
"39598","","{""concept-creativity-rating"":3,""concept-implementation-rating"":3,""question1"":null}","concept-gemini-2-patch","survey","5","297476","0.0-5.0","66b7c04e75051c539d8b4776","6987c292780adf01bb926159","69a4faf7c0f59a7d4b16af53","","","","","","",""
"3564","You have completed your evaluation of the first video game.<br><br>Press any key to proceed to the second game."," ","pre-game-two-message","html-keyboard-response","6","301041","0.0-6.0","66b7c04e75051c539d8b4776","6987c292780adf01bb926159","69a4faf7c0f59a7d4b16af53","","","","","","",""
"132168","","","game-gemini-5-rename","plugin-game-iframe","7","433223","0.0-7.0","66b7c04e75051c539d8b4776","6987c292780adf01bb926159","69a4faf7c0f59a7d4b16af53","game-complete","exit-distance 650","{""stage"":""exit-distance 650"",""detail"":{""wallZipExtension"":"".ghost"",""hazardExtension"":"".fire"",""playerBurning"":false,""isTyping"":false,""distanceToExit"":650}}","{""result"":""win""}","null","[{""key"":"" "",""event"":""keyup"",""t"":147},{""key"":""ArrowRight"",""event"":""keydown"",""t"":14861},{""key"":""ArrowRight"",""event"":""keyup"",""t"":15087},{""key"":""ArrowRight"",""event"":""keydown"",""t"":15364},{""key"":""ArrowRight"",""event"":""keyup"",""t"":15606},{""key"":""ArrowRight"",""event"":""keydown"",""t"":15667},{""key"":""ArrowRight"",""event"":""keydown"",""t"":16161},{""key"":""ArrowRight"",""event"":""keydown"",""t"":16194},{""key"":""ArrowRight"",""event"":""keydown"",""t"":16227},{""key"":""ArrowRight"",""event"":""keydown"",""t"":16257},{""key"":""ArrowRight"",""event"":""keydown"",""t"":16289},{""key"":""ArrowRight"",""event"":""keydown"",""t"":16320},{""key"":""ArrowRight"",""event"":""keydown"",""t"":16351},{""key"":""ArrowRight"",""event"":""keydown"",""t"":16384},{""key"":""ArrowRight"",""event"":""keydown"",""t"":16415},{""key"":""ArrowRight"",""event"":""keyup"",""t"":16420},{""key"":""ArrowLeft"",""event"":""keydown"",""t"":16594},{""key"":""ArrowLeft"",""event"":""keyup"",""t"":16823},{""key"":""ArrowLeft"",""event"":""keydown"",""t"":18357},{""key"":""ArrowLeft"",""event"":""keyup"",""t"":18570},{""key"":""ArrowRight"",""event"":""keydown"",""t"":18786},{""key"":""ArrowRight"",""event"":""keyup"",""t"":18920},{""key"":""ArrowRight"",""event"":""keydown"",""t"":19279},{""key"":""ArrowRight"",""event"":""keyup"",""t"":19427},{""key"":""ArrowRight"",""event"":""keydown"",""t"":21295},{""key"":""ArrowRight"",""event"":""keyup"",""t"":21397},{""key"":""ArrowRight"",""event"":""keydown"",""t"":22626},{""key"":""ArrowUp"",""event"":""keydown"",""t"":22763},{""key"":""ArrowUp"",""event"":""keydown"",""t"":23254},{""key"":""ArrowUp"",""event"":""keydown"",""t"":23285},{""key"":""ArrowUp"",""event"":""keydown"",""t"":23318},{""key"":""ArrowUp"",""event"":""keydown"",""t"":23349},{""key"":""ArrowUp"",""event"":""keydown"",""t"":23380},{""key"":""ArrowUp"",""event"":""keyup"",""t"":23405},{""key"":""ArrowRight"",""event"":""keyup"",""t"":23447},{""key"":""ArrowRight"",""event"":""keydown"",""t"":23642},{""key"":""ArrowRight"",""event"":""keyup"",""t"":23998},{""key"":""ArrowUp"",""event"":""keydown"",""t"":24512},{""key"":""ArrowUp"",""event"":""keydown"",""t"":25005},{""key"":""ArrowUp"",""event"":""keydown"",""t"":25036},{""key"":""ArrowUp"",""event"":""keydown"",""t"":25067},{""key"":""ArrowUp"",""event"":""keydown"",""t"":25100},{""key"":""ArrowUp"",""event"":""keydown"",""t"":25133},{""key"":""ArrowUp"",""event"":""keydown"",""t"":25165},{""key"":""ArrowUp"",""event"":""keydown"",""t"":25195},{""key"":""ArrowUp"",""event"":""keydown"",""t"":25226},{""key"":""ArrowUp"",""event"":""keydown"",""t"":25257},{""key"":""ArrowUp"",""event"":""keyup"",""t"":25287},{""key"":""ArrowRight"",""event"":""keydown"",""t"":25347},{""key"":""ArrowRight"",""event"":""keydown"",""t"":25842},{""key"":""ArrowRight"",""event"":""keydown"",""t"":25873},{""key"":""ArrowRight"",""event"":""keydown"",""t"":25904},{""key"":""ArrowRight"",""event"":""keydown"",""t"":25935},{""key"":""ArrowRight"",""event"":""keydown"",""t"":25966},{""key"":""ArrowRight"",""event"":""keydown"",""t"":25999},{""key"":""ArrowRight"",""event"":""keydown"",""t"":26033},{""key"":""ArrowRight"",""event"":""keydown"",""t"":26062},{""key"":""ArrowRight"",""event"":""keydown"",""t"":26094},{""key"":""ArrowUp"",""event"":""keydown"",""t"":26104},{""key"":""ArrowUp"",""event"":""keydown"",""t"":26595},{""key"":""ArrowUp"",""event"":""keydown"",""t"":26629},{""key"":""ArrowUp"",""event"":""keydown"",""t"":26660},{""key"":""ArrowUp"",""event"":""keydown"",""t"":26691},{""key"":""ArrowUp"",""event"":""keydown"",""t"":26724},{""key"":""ArrowUp"",""event"":""keydown"",""t"":26756},{""key"":""ArrowUp"",""event"":""keydown"",""t"":26787},{""key"":""ArrowUp"",""event"":""keydown"",""t"":26818},{""key"":""ArrowUp"",""event"":""keydown"",""t"":26849},{""key"":""ArrowUp"",""event"":""keydown"",""t"":26881},{""key"":""ArrowUp"",""event"":""keydown"",""t"":26914},{""key"":""ArrowUp"",""event"":""keyup"",""t"":26929},{""key"":""ArrowRight"",""event"":""keyup"",""t"":27024},{""key"":""e"",""event"":""keydown"",""t"":43445},{""key"":""e"",""event"":""keyup"",""t"":43557},{""key"":""x"",""event"":""keydown"",""t"":43820},{""key"":""x"",""event"":""keyup"",""t"":43937},{""key"":""i"",""event"":""keydown"",""t"":46168},{""key"":""i"",""event"":""keyup"",""t"":46285},{""key"":""t"",""event"":""keydown"",""t"":46480},{""key"":""t"",""event"":""keyup"",""t"":46592},{""key"":""Enter"",""event"":""keydown"",""t"":47675},{""key"":""Enter"",""event"":""keyup"",""t"":47783},{""key"":""e"",""event"":""keydown"",""t"":57038},{""key"":""e"",""event"":""keyup"",""t"":57154},{""key"":""x"",""event"":""keydown"",""t"":57295},{""key"":""i"",""event"":""keydown"",""t"":57417},{""key"":""x"",""event"":""keyup"",""t"":57421},{""key"":""i"",""event"":""keyup"",""t"":57501},{""key"":""t"",""event"":""keydown"",""t"":57627},{""key"":""t"",""event"":""keyup"",""t"":57734},{""key"":""."",""event"":""keydown"",""t"":59074},{""key"":""."",""event"":""keyup"",""t"":59159},{""key"":""s"",""event"":""keydown"",""t"":59441},{""key"":""s"",""event"":""keyup"",""t"":59539},{""key"":""h"",""event"":""keydown"",""t"":59603},{""key"":""h"",""event"":""keyup"",""t"":59688},{""key"":""o"",""event"":""keydown"",""t"":59821},{""key"":""o"",""event"":""keyup"",""t"":59937},{""key"":""r"",""event"":""keydown"",""t"":59998},{""key"":""r"",""event"":""keyup"",""t"":60067},{""key"":""t"",""event"":""keydown"",""t"":60165},{""key"":""t"",""event"":""keyup"",""t"":60257},{""key"":""c"",""event"":""keydown"",""t"":60775},{""key"":""c"",""event"":""keyup"",""t"":60857},{""key"":""u"",""event"":""keydown"",""t"":60868},{""key"":""u"",""event"":""keyup"",""t"":60960},{""key"":""t"",""event"":""keydown"",""t"":61038},{""key"":""t"",""event"":""keyup"",""t"":61134},{""key"":""Enter"",""event"":""keydown"",""t"":62103},{""key"":""Enter"",""event"":""keyup"",""t"":62228},{""key"":""w"",""event"":""keydown"",""t"":71205},{""key"":""w"",""event"":""keyup"",""t"":71298},{""key"":""a"",""event"":""keydown"",""t"":71449},{""key"":""a"",""event"":""keyup"",""t"":71516},{""key"":""l"",""event"":""keydown"",""t"":71585},{""key"":""l"",""event"":""keyup"",""t"":71648},{""key"":""l"",""event"":""keydown"",""t"":71717},{""key"":""l"",""event"":""keyup"",""t"":71811},{""key"":""."",""event"":""keydown"",""t"":72070},{""key"":""."",""event"":""keyup"",""t"":72187},{""key"":""z"",""event"":""keydown"",""t"":72918},{""key"":""z"",""event"":""keyup"",""t"":73038},{""key"":""i"",""event"":""keydown"",""t"":73544},{""key"":""p"",""event"":""keydown"",""t"":73610},{""key"":""i"",""event"":""keyup"",""t"":73628},{""key"":""p"",""event"":""keyup"",""t"":73719},{""key"":""Enter"",""event"":""keydown"",""t"":73938},{""key"":""Enter"",""event"":""keyup"",""t"":74008},{""key"":""ArrowRight"",""event"":""keydown"",""t"":76425},{""key"":""ArrowLeft"",""event"":""keydown"",""t"":76826},{""key"":""ArrowRight"",""event"":""keyup"",""t"":76830},{""key"":""ArrowLeft"",""event"":""keyup"",""t"":77026},{""key"":""ArrowRight"",""event"":""keydown"",""t"":77331},{""key"":""ArrowRight"",""event"":""keyup"",""t"":77495},{""key"":""ArrowRight"",""event"":""keydown"",""t"":77531},{""key"":""ArrowUp"",""event"":""keydown"",""t"":77893},{""key"":""ArrowRight"",""event"":""keyup"",""t"":78191},{""key"":""ArrowRight"",""event"":""keydown"",""t"":78299},{""key"":""ArrowRight"",""event"":""keyup"",""t"":78378},{""key"":""ArrowRight"",""event"":""keydown"",""t"":78463},{""key"":""ArrowRight"",""event"":""keyup"",""t"":78609},{""key"":""ArrowUp"",""event"":""keyup"",""t"":78623},{""key"":""Enter"",""event"":""keydown"",""t"":104376},{""key"":""Enter"",""event"":""keyup"",""t"":104477},{""key"":""w"",""event"":""keydown"",""t"":106212},{""key"":""w"",""event"":""keyup"",""t"":106301},{""key"":""a"",""event"":""keydown"",""t"":106456},{""key"":""a"",""event"":""keyup"",""t"":106558},{""key"":""l"",""event"":""keydown"",""t"":106589},{""key"":""l"",""event"":""keyup"",""t"":106633},{""key"":""l"",""event"":""keydown"",""t"":106712},{""key"":""l"",""event"":""keyup"",""t"":106807},{""key"":""."",""event"":""keydown"",""t"":107171},{""key"":""."",""event"":""keyup"",""t"":107286},{""key"":""g"",""event"":""keydown"",""t"":107881},{""key"":""g"",""event"":""keyup"",""t"":107981},{""key"":""h"",""event"":""keydown"",""t"":108035},{""key"":""h"",""event"":""keyup"",""t"":108129},{""key"":""o"",""event"":""keydown"",""t"":108243},{""key"":""o"",""event"":""keyup"",""t"":108331},{""key"":""s"",""event"":""keydown"",""t"":108412},{""key"":""s"",""event"":""keyup"",""t"":108514},{""key"":""t"",""event"":""keydown"",""t"":108555},{""key"":""t"",""event"":""keyup"",""t"":108676},{""key"":""Enter"",""event"":""keydown"",""t"":109638},{""key"":""Enter"",""event"":""keyup"",""t"":109740},{""key"":""ArrowRight"",""event"":""keydown"",""t"":110625},{""key"":""ArrowRight"",""event"":""keydown"",""t"":111115},{""key"":""ArrowRight"",""event"":""keydown"",""t"":111148},{""key"":""ArrowRight"",""event"":""keydown"",""t"":111181},{""key"":""ArrowRight"",""event"":""keydown"",""t"":111211},{""key"":""ArrowRight"",""event"":""keydown"",""t"":111243},{""key"":""ArrowRight"",""event"":""keydown"",""t"":111273},{""key"":""ArrowRight"",""event"":""keydown"",""t"":111304},{""key"":""ArrowRight"",""event"":""keydown"",""t"":111337},{""key"":""ArrowRight"",""event"":""keydown"",""t"":111369},{""key"":""ArrowRight"",""event"":""keydown"",""t"":111400},{""key"":""ArrowRight"",""event"":""keydown"",""t"":111432},{""key"":""ArrowRight"",""event"":""keydown"",""t"":111464},{""key"":""ArrowRight"",""event"":""keydown"",""t"":111495},{""key"":""ArrowRight"",""event"":""keydown"",""t"":111528},{""key"":""ArrowRight"",""event"":""keydown"",""t"":111561},{""key"":""ArrowRight"",""event"":""keydown"",""t"":111591},{""key"":""ArrowRight"",""event"":""keydown"",""t"":111622},{""key"":""ArrowRight"",""event"":""keydown"",""t"":111653},{""key"":""ArrowRight"",""event"":""keydown"",""t"":111684},{""key"":""ArrowRight"",""event"":""keydown"",""t"":111717},{""key"":""ArrowRight"",""event"":""keydown"",""t"":111749},{""key"":""ArrowRight"",""event"":""keydown"",""t"":111779},{""key"":""ArrowRight"",""event"":""keydown"",""t"":111812},{""key"":""ArrowRight"",""event"":""keydown"",""t"":111843},{""key"":""ArrowRight"",""event"":""keydown"",""t"":111874},{""key"":""ArrowRight"",""event"":""keydown"",""t"":111907},{""key"":""ArrowRight"",""event"":""keydown"",""t"":111939},{""key"":""ArrowRight"",""event"":""keydown"",""t"":111970},{""key"":""ArrowRight"",""event"":""keydown"",""t"":112001},{""key"":""ArrowRight"",""event"":""keydown"",""t"":112033},{""key"":""ArrowRight"",""event"":""keydown"",""t"":112064},{""key"":""ArrowRight"",""event"":""keydown"",""t"":112097},{""key"":""ArrowRight"",""event"":""keydown"",""t"":112129},{""key"":""ArrowRight"",""event"":""keydown"",""t"":112159},{""key"":""ArrowRight"",""event"":""keydown"",""t"":112191},{""key"":""ArrowRight"",""event"":""keydown"",""t"":112223},{""key"":""ArrowRight"",""event"":""keydown"",""t"":112254},{""key"":""ArrowRight"",""event"":""keydown"",""t"":112288},{""key"":""ArrowRight"",""event"":""keyup"",""t"":112291},{""key"":""w"",""event"":""keydown"",""t"":117422},{""key"":""w"",""event"":""keyup"",""t"":117522},{""key"":""a"",""event"":""keydown"",""t"":117632},{""key"":""l"",""event"":""keydown"",""t"":117713},{""key"":""a"",""event"":""keyup"",""t"":117727},{""key"":""l"",""event"":""keyup"",""t"":117763},{""key"":""l"",""event"":""keydown"",""t"":117832},{""key"":""l"",""event"":""keyup"",""t"":117912},{""key"":""."",""event"":""keydown"",""t"":118009},{""key"":""."",""event"":""keyup"",""t"":118114},{""key"":""g"",""event"":""keydown"",""t"":118237},{""key"":""g"",""event"":""keyup"",""t"":118342},{""key"":""h"",""event"":""keydown"",""t"":118461},{""key"":""h"",""event"":""keyup"",""t"":118555},{""key"":""o"",""event"":""keydown"",""t"":118660},{""key"":""o"",""event"":""keyup"",""t"":118771},{""key"":""s"",""event"":""keydown"",""t"":118789},{""key"":""s"",""event"":""keyup"",""t"":118853},{""key"":""t"",""event"":""keydown"",""t"":119919},{""key"":""t"",""event"":""keyup"",""t"":120031},{""key"":""Enter"",""event"":""keydown"",""t"":120034},{""key"":""Enter"",""event"":""keyup"",""t"":120134},{""key"":""ArrowRight"",""event"":""keydown"",""t"":121140},{""key"":""ArrowRight"",""event"":""keydown"",""t"":121631},{""key"":""ArrowRight"",""event"":""keydown"",""t"":121663},{""key"":""ArrowRight"",""event"":""keydown"",""t"":121694},{""key"":""ArrowRight"",""event"":""keydown"",""t"":121727},{""key"":""ArrowRight"",""event"":""keydown"",""t"":121758},{""key"":""ArrowRight"",""event"":""keydown"",""t"":121790},{""key"":""ArrowRight"",""event"":""keydown"",""t"":121823},{""key"":""ArrowRight"",""event"":""keydown"",""t"":121853},{""key"":""ArrowRight"",""event"":""keydown"",""t"":121884},{""key"":""ArrowRight"",""event"":""keydown"",""t"":121917},{""key"":""ArrowRight"",""event"":""keydown"",""t"":121949},{""key"":""ArrowRight"",""event"":""keydown"",""t"":121980},{""key"":""ArrowRight"",""event"":""keydown"",""t"":122011},{""key"":""ArrowRight"",""event"":""keydown"",""t"":122043},{""key"":""ArrowRight"",""event"":""keydown"",""t"":122073},{""key"":""ArrowRight"",""event"":""keydown"",""t"":122107},{""key"":""ArrowRight"",""event"":""keydown"",""t"":122138},{""key"":""ArrowRight"",""event"":""keydown"",""t"":122168},{""key"":""ArrowRight"",""event"":""keydown"",""t"":122201},{""key"":""ArrowRight"",""event"":""keydown"",""t"":122232},{""key"":""ArrowRight"",""event"":""keydown"",""t"":122263},{""key"":""ArrowRight"",""event"":""keydown"",""t"":122296},{""key"":""ArrowRight"",""event"":""keyup"",""t"":122317},{""key"":""ArrowRight"",""event"":""keydown"",""t"":122948},{""key"":""ArrowRight"",""event"":""keyup"",""t"":123118},{""key"":""ArrowLeft"",""event"":""keydown"",""t"":123651},{""key"":""ArrowLeft"",""event"":""keyup"",""t"":123755},{""key"":""ArrowUp"",""event"":""keydown"",""t"":124045},{""key"":""ArrowUp"",""event"":""keyup"",""t"":124229},{""key"":""Enter"",""event"":""keydown"",""t"":132161}]","[]"
"289035","","{""creativity-rating"":2,""creativity-free-response"":""Lack of gameplay modes, not very well made models"",""originality-rating"":2,""originality-free-response"":""Nothing particularly stands out or is truly original. Although the ability to change character names is a nice touch."",""effectiveness-rating"":2,""effectiveness-free-response"":""Everything worked perfectly. It was fun figuring out how it worked and managing to progress and finish the game."",""authenticity-rating"":1,""attention-check"":3,""intentionality-rating"":3,""authenticity-intentionality-free-response"":""It's not a game that stands out or is particularly original. The designs aren't very original.""}","evaluation-gemini-5-rename","survey","8","722323","0.0-8.0","66b7c04e75051c539d8b4776","6987c292780adf01bb926159","69a4faf7c0f59a7d4b16af53","","","","","","",""
"24195","","{""concept-creativity-rating"":3,""concept-implementation-rating"":4,""question1"":null}","concept-gemini-5-rename","survey","9","746545","0.0-9.0","66b7c04e75051c539d8b4776","6987c292780adf01bb926159","69a4faf7c0f59a7d4b16af53","","","","","","",""
"2439","You have completed your evaluation of the second video game.<br><br>Press any key to proceed to the final game."," ","pre-game-three-message","html-keyboard-response","10","748985","0.0-10.0","66b7c04e75051c539d8b4776","6987c292780adf01bb926159","69a4faf7c0f59a7d4b16af53","","","","","","",""
"135265","","","game-claude-6-flame","plugin-game-iframe","11","884265","0.0-11.0","66b7c04e75051c539d8b4776","6987c292780adf01bb926159","69a4faf7c0f59a7d4b16af53","game-complete","ending","{""stage"":""ending"",""detail"":{""distancePct"":96,""glowPhase"":4.7,""flamesPlaced"":3,""isDead"":false,""isEnding"":true}}","{""result"":""win"",""distance"":6169.21867637904}","null","[{""key"":"" "",""event"":""keyup"",""t"":113},{""key"":""Enter"",""event"":""keydown"",""t"":135249}]","[]"
"175965","","{""creativity-rating"":3,""creativity-free-response"":""The fact of having to light the way is a creative interesting mechanic."",""originality-rating"":3,""originality-free-response"":""The design looked sleek and cute. The mechanics turned out to be quite interesting."",""effectiveness-rating"":4,""effectiveness-free-response"":""It was quite entertaining and enjoyable trying to keep the character from falling and help him find his way through the light."",""authenticity-rating"":3,""attention-check"":3,""intentionality-rating"":3,""authenticity-intentionality-free-response"":""Although it seems like a pretty interesting game, it doesn't feel entirely authentic to me. Even so, it has some enjoyable mechanics.""}","evaluation-claude-6-flame","survey","12","1060288","0.0-12.0","66b7c04e75051c539d8b4776","6987c292780adf01bb926159","69a4faf7c0f59a7d4b16af53","","","","","","",""
"43314","","{""concept-creativity-rating"":4,""concept-implementation-rating"":4,""question1"":null}","concept-claude-6-flame","survey","13","1103629","0.0-13.0","66b7c04e75051c539d8b4776","6987c292780adf01bb926159","69a4faf7c0f59a7d4b16af53","","","","","","",""
"2936","You have completed all of the games!<br><br>Press any key to proceed to some final questions before returning to Prolific."," ","pre-baseline-questions","html-keyboard-response","14","1106567","0.0-14.0","66b7c04e75051c539d8b4776","6987c292780adf01bb926159","69a4faf7c0f59a7d4b16af53","","","","","","",""
"15050","","{""baseline_originality_rating"":4,""baseline_effectiveness_rating"":3,""baseline_authenticity_rating"":3,""baseline_intentionality_rating"":3}","baseline-questions-rating","survey","15","1121647","0.0-15.0","66b7c04e75051c539d8b4776","6987c292780adf01bb926159","69a4faf7c0f59a7d4b16af53","","","","","","",""
"62901","","{""ai_blind_question"":""I wouldn't have answered differently since the questions were about the game and not about the creators as a whole.""}","ai-blind-question","survey","16","1184567","0.0-16.0","66b7c04e75051c539d8b4776","6987c292780adf01bb926159","69a4faf7c0f59a7d4b16af53","","","","","","",""
"5306","
        <p> You have completed the experiment! Press any key to save your data and get redirected back to Prolific. <strong>Please do not close the page until you have been redirected to Prolific.</strong> <p>
      "," ","goodbye","html-keyboard-response","17","1189874","0.0-17.0","66b7c04e75051c539d8b4776","6987c292780adf01bb926159","69a4faf7c0f59a7d4b16af53","","","","","","",""
