"rt","stimulus","response","phase","trial_type","trial_index","time_elapsed","internal_node_id","prolific_subject_id","study_id","session_id","exit_reason","exit_stage","exit_progress","game_data","emergency_text","keystrokes","mouse_events"
"8016","Welcome!<br><br>In this study, you will play three short video games that were generated by Artificial Intelligence (AI) and complete a short survey after each game.<br><br>Please make sure you are in a quiet environment where you can focus for the duration of the study. Some games may use sound, so please ensure that your device's volume is not muted.<br><br>Press any key to begin."," ","welcome-message","html-keyboard-response","0","8024","0.0-0.0","631610af8e747093cd90e00d","6987c292780adf01bb926159","69a4ede0e3517a6c95b2d699","","","","","","",""
"7423","","{""commitment-check"":[""yes""]}","commitment-check","survey","1","15479","0.0-1.0","631610af8e747093cd90e00d","6987c292780adf01bb926159","69a4ede0e3517a6c95b2d699","","","","","","",""
"111960","Press any key to proceed to the first video game. Should you encounter a game-breaking bug, please report the issue in the Menu tab to the right of the screen."," ","pre-game-one-message","html-keyboard-response","2","127441","0.0-2.0","631610af8e747093cd90e00d","6987c292780adf01bb926159","69a4ede0e3517a6c95b2d699","","","","","","",""
"248071","","","game-claude-6-flame","plugin-game-iframe","3","375560","0.0-3.0","631610af8e747093cd90e00d","6987c292780adf01bb926159","69a4ede0e3517a6c95b2d699","game-complete","ending","{""stage"":""ending"",""detail"":{""distancePct"":96,""glowPhase"":4.7,""flamesPlaced"":2,""isDead"":false,""isEnding"":true}}","{""result"":""win"",""distance"":6168.071324347195}","null","[{""key"":"" "",""event"":""keyup"",""t"":69},{""key"":""Enter"",""event"":""keydown"",""t"":248059}]","[]"
"447819","","{""creativity-rating"":2,""creativity-free-response"":""The game didn't really offer much in the way of creativity. there was no story, there wasn't much gameplay."",""originality-rating"":1,""originality-free-response"":""I've played similar games before where you don't have direct control of your character. There was no challenge, no gameplay mechanics."",""effectiveness-rating"":1,""effectiveness-free-response"":""It was pretty boring and I was largely just clicking randomly to progress. My input mattered very little so long as I kept it moving right. "",""authenticity-rating"":1,""attention-check"":3,""intentionality-rating"":1,""authenticity-intentionality-free-response"":""There was nothing about the game that really shouted intentionality. The experience was hollow. ""}","evaluation-claude-6-flame","survey","4","823411","0.0-4.0","631610af8e747093cd90e00d","6987c292780adf01bb926159","69a4ede0e3517a6c95b2d699","","","","","","",""
"33083","","{""concept-creativity-rating"":2,""concept-implementation-rating"":4,""question1"":null}","concept-claude-6-flame","survey","5","856512","0.0-5.0","631610af8e747093cd90e00d","6987c292780adf01bb926159","69a4ede0e3517a6c95b2d699","","","","","","",""
"1655","You have completed your evaluation of the first video game.<br><br>Press any key to proceed to the second game."," ","pre-game-two-message","html-keyboard-response","6","858167","0.0-6.0","631610af8e747093cd90e00d","6987c292780adf01bb926159","69a4ede0e3517a6c95b2d699","","","","","","",""
"221942","","","game-claude-4-decibel","plugin-game-iframe","7","1080138","0.0-7.0","631610af8e747093cd90e00d","6987c292780adf01bb926159","69a4ede0e3517a6c95b2d699","game-complete","silenced 4/4 (phase 5)","{""stage"":""silenced 4/4 (phase 5)"",""detail"":{""instrumentsSilenced"":4,""currentPhase"":5,""elapsedMs"":201304.1000000033,""score"":920}}","{""result"":""win"",""finalScore"":1118,""instrumentsSilenced"":4,""elapsedTime"":201304.1000000033}","null","[{""key"":"" "",""event"":""keyup"",""t"":77},{""key"":"" "",""event"":""keydown"",""t"":9378},{""key"":"" "",""event"":""keyup"",""t"":9499},{""key"":""ArrowLeft"",""event"":""keydown"",""t"":11188},{""key"":""ArrowLeft"",""event"":""keyup"",""t"":11658},{""key"":""ArrowUp"",""event"":""keydown"",""t"":11800},{""key"":""ArrowUp"",""event"":""keyup"",""t"":12188},{""key"":""ArrowLeft"",""event"":""keydown"",""t"":12608},{""key"":""ArrowLeft"",""event"":""keyup"",""t"":12799},{""key"":""ArrowRight"",""event"":""keydown"",""t"":13368},{""key"":""ArrowRight"",""event"":""keyup"",""t"":13488},{""key"":""ArrowLeft"",""event"":""keydown"",""t"":14018},{""key"":""ArrowLeft"",""event"":""keyup"",""t"":14088},{""key"":""ArrowRight"",""event"":""keydown"",""t"":14335},{""key"":""ArrowRight"",""event"":""keyup"",""t"":14458},{""key"":""Shift"",""event"":""keydown"",""t"":15728},{""key"":""Shift"",""event"":""keyup"",""t"":15729},{""key"":""ArrowUp"",""event"":""keydown"",""t"":15738},{""key"":""ArrowUp"",""event"":""keyup"",""t"":15868},{""key"":""ArrowDown"",""event"":""keydown"",""t"":16369},{""key"":""ArrowDown"",""event"":""keyup"",""t"":16498},{""key"":""ArrowUp"",""event"":""keydown"",""t"":16798},{""key"":""ArrowUp"",""event"":""keyup"",""t"":16869},{""key"":"" "",""event"":""keydown"",""t"":17738},{""key"":"" "",""event"":""keyup"",""t"":17858},{""key"":""ArrowUp"",""event"":""keydown"",""t"":17970},{""key"":""ArrowUp"",""event"":""keyup"",""t"":18088},{""key"":"" "",""event"":""keydown"",""t"":18298},{""key"":"" "",""event"":""keyup"",""t"":18408},{""key"":"" "",""event"":""keydown"",""t"":18848},{""key"":"" "",""event"":""keyup"",""t"":18948},{""key"":"" "",""event"":""keydown"",""t"":19488},{""key"":"" "",""event"":""keyup"",""t"":19588},{""key"":""ArrowLeft"",""event"":""keydown"",""t"":19798},{""key"":""ArrowLeft"",""event"":""keyup"",""t"":19898},{""key"":""ArrowUp"",""event"":""keydown"",""t"":20358},{""key"":""ArrowUp"",""event"":""keyup"",""t"":20448},{""key"":"" "",""event"":""keydown"",""t"":21678},{""key"":"" "",""event"":""keyup"",""t"":21778},{""key"":"" "",""event"":""keydown"",""t"":22348},{""key"":"" "",""event"":""keyup"",""t"":22439},{""key"":"" "",""event"":""keydown"",""t"":22998},{""key"":"" "",""event"":""keyup"",""t"":23090},{""key"":""ArrowDown"",""event"":""keydown"",""t"":23618},{""key"":""ArrowDown"",""event"":""keyup"",""t"":23759},{""key"":""ArrowLeft"",""event"":""keydown"",""t"":23858},{""key"":""ArrowLeft"",""event"":""keyup"",""t"":23998},{""key"":"" "",""event"":""keydown"",""t"":25118},{""key"":"" "",""event"":""keyup"",""t"":25231},{""key"":""ArrowDown"",""event"":""keydown"",""t"":25838},{""key"":""ArrowDown"",""event"":""keyup"",""t"":26008},{""key"":"" "",""event"":""keydown"",""t"":26058},{""key"":"" "",""event"":""keyup"",""t"":26138},{""key"":""ArrowLeft"",""event"":""keydown"",""t"":26848},{""key"":""ArrowLeft"",""event"":""keyup"",""t"":26968},{""key"":"" "",""event"":""keydown"",""t"":27648},{""key"":"" "",""event"":""keyup"",""t"":27738},{""key"":""ArrowDown"",""event"":""keydown"",""t"":28318},{""key"":""ArrowDown"",""event"":""keyup"",""t"":28410},{""key"":"" "",""event"":""keydown"",""t"":28418},{""key"":"" "",""event"":""keyup"",""t"":28510},{""key"":""ArrowLeft"",""event"":""keydown"",""t"":29478},{""key"":""ArrowLeft"",""event"":""keyup"",""t"":29568},{""key"":""ArrowUp"",""event"":""keydown"",""t"":30198},{""key"":""ArrowUp"",""event"":""keyup"",""t"":30318},{""key"":"" "",""event"":""keydown"",""t"":30367},{""key"":"" "",""event"":""keyup"",""t"":30458},{""key"":"" "",""event"":""keydown"",""t"":31308},{""key"":"" "",""event"":""keyup"",""t"":31398},{""key"":"" "",""event"":""keydown"",""t"":31979},{""key"":"" "",""event"":""keyup"",""t"":32058},{""key"":"" "",""event"":""keydown"",""t"":32608},{""key"":"" "",""event"":""keyup"",""t"":32688},{""key"":""ArrowUp"",""event"":""keydown"",""t"":33198},{""key"":""ArrowUp"",""event"":""keyup"",""t"":33280},{""key"":"" "",""event"":""keydown"",""t"":34168},{""key"":"" "",""event"":""keyup"",""t"":34258},{""key"":""ArrowUp"",""event"":""keydown"",""t"":34738},{""key"":""ArrowUp"",""event"":""keyup"",""t"":34848},{""key"":"" "",""event"":""keydown"",""t"":34928},{""key"":"" "",""event"":""keyup"",""t"":34998},{""key"":"" "",""event"":""keydown"",""t"":35588},{""key"":"" "",""event"":""keyup"",""t"":35668},{""key"":"" "",""event"":""keydown"",""t"":36107},{""key"":"" "",""event"":""keyup"",""t"":36187},{""key"":""ArrowRight"",""event"":""keydown"",""t"":36608},{""key"":""ArrowRight"",""event"":""keyup"",""t"":36758},{""key"":""ArrowUp"",""event"":""keydown"",""t"":36818},{""key"":""ArrowUp"",""event"":""keyup"",""t"":36888},{""key"":"" "",""event"":""keydown"",""t"":36988},{""key"":"" "",""event"":""keyup"",""t"":37058},{""key"":"" "",""event"":""keydown"",""t"":37818},{""key"":"" "",""event"":""keyup"",""t"":37900},{""key"":""ArrowDown"",""event"":""keydown"",""t"":38320},{""key"":""ArrowDown"",""event"":""keyup"",""t"":38428},{""key"":"" "",""event"":""keydown"",""t"":38658},{""key"":"" "",""event"":""keyup"",""t"":38768},{""key"":"" "",""event"":""keydown"",""t"":39627},{""key"":"" "",""event"":""keyup"",""t"":39718},{""key"":""ArrowRight"",""event"":""keydown"",""t"":40658},{""key"":""ArrowDown"",""event"":""keydown"",""t"":40878},{""key"":""ArrowRight"",""event"":""keyup"",""t"":40908},{""key"":""ArrowDown"",""event"":""keyup"",""t"":41288},{""key"":""ArrowRight"",""event"":""keydown"",""t"":41338},{""key"":""ArrowDown"",""event"":""keydown"",""t"":41708},{""key"":""ArrowDown"",""event"":""keydown"",""t"":42213},{""key"":""ArrowDown"",""event"":""keydown"",""t"":42243},{""key"":""ArrowDown"",""event"":""keydown"",""t"":42276},{""key"":""ArrowDown"",""event"":""keydown"",""t"":42307},{""key"":""ArrowDown"",""event"":""keydown"",""t"":42354},{""key"":""ArrowDown"",""event"":""keydown"",""t"":42386},{""key"":""ArrowDown"",""event"":""keydown"",""t"":42415},{""key"":""ArrowDown"",""event"":""keyup"",""t"":42427},{""key"":""ArrowDown"",""event"":""keydown"",""t"":42798},{""key"":""ArrowRight"",""event"":""keyup"",""t"":43048},{""key"":""ArrowRight"",""event"":""keydown"",""t"":43207},{""key"":""ArrowDown"",""event"":""keyup"",""t"":43258},{""key"":""ArrowRight"",""event"":""keyup"",""t"":43721},{""key"":""ArrowDown"",""event"":""keydown"",""t"":44488},{""key"":""ArrowDown"",""event"":""keyup"",""t"":44618},{""key"":""ArrowRight"",""event"":""keydown"",""t"":44638},{""key"":""ArrowRight"",""event"":""keyup"",""t"":44998},{""key"":"" "",""event"":""keydown"",""t"":45338},{""key"":"" "",""event"":""keyup"",""t"":45428},{""key"":""ArrowRight"",""event"":""keydown"",""t"":45939},{""key"":""ArrowRight"",""event"":""keyup"",""t"":46089},{""key"":""ArrowLeft"",""event"":""keydown"",""t"":46558},{""key"":"" "",""event"":""keydown"",""t"":46667},{""key"":""ArrowLeft"",""event"":""keyup"",""t"":46668},{""key"":"" "",""event"":""keyup"",""t"":46748},{""key"":""ArrowRight"",""event"":""keydown"",""t"":47078},{""key"":""ArrowRight"",""event"":""keyup"",""t"":47178},{""key"":"" "",""event"":""keydown"",""t"":47558},{""key"":"" "",""event"":""keyup"",""t"":47659},{""key"":""ArrowDown"",""event"":""keydown"",""t"":48340},{""key"":""ArrowDown"",""event"":""keyup"",""t"":48418},{""key"":"" "",""event"":""keydown"",""t"":48738},{""key"":"" "",""event"":""keyup"",""t"":48829},{""key"":"" "",""event"":""keydown"",""t"":49758},{""key"":"" "",""event"":""keyup"",""t"":49867},{""key"":"" "",""event"":""keydown"",""t"":51109},{""key"":"" "",""event"":""keyup"",""t"":51259},{""key"":""ArrowDown"",""event"":""keydown"",""t"":51898},{""key"":"" "",""event"":""keydown"",""t"":51967},{""key"":""ArrowDown"",""event"":""keyup"",""t"":52027},{""key"":"" "",""event"":""keyup"",""t"":52060},{""key"":""ArrowUp"",""event"":""keydown"",""t"":52527},{""key"":"" "",""event"":""keydown"",""t"":52548},{""key"":""ArrowUp"",""event"":""keyup"",""t"":52618},{""key"":"" "",""event"":""keyup"",""t"":52648},{""key"":"" "",""event"":""keydown"",""t"":53111},{""key"":"" "",""event"":""keyup"",""t"":53198},{""key"":"" "",""event"":""keydown"",""t"":53738},{""key"":"" "",""event"":""keyup"",""t"":53848},{""key"":"" "",""event"":""keydown"",""t"":54327},{""key"":"" "",""event"":""keyup"",""t"":54428},{""key"":""ArrowDown"",""event"":""keydown"",""t"":54848},{""key"":""ArrowDown"",""event"":""keyup"",""t"":54958},{""key"":"" "",""event"":""keydown"",""t"":54961},{""key"":"" "",""event"":""keyup"",""t"":55048},{""key"":""ArrowLeft"",""event"":""keydown"",""t"":55508},{""key"":""ArrowLeft"",""event"":""keyup"",""t"":55538},{""key"":"" "",""event"":""keydown"",""t"":55729},{""key"":"" "",""event"":""keyup"",""t"":55798},{""key"":"" "",""event"":""keydown"",""t"":56598},{""key"":"" "",""event"":""keyup"",""t"":56658},{""key"":"" "",""event"":""keydown"",""t"":57308},{""key"":"" "",""event"":""keyup"",""t"":57438},{""key"":"" "",""event"":""keydown"",""t"":58137},{""key"":"" "",""event"":""keyup"",""t"":58238},{""key"":"" "",""event"":""keydown"",""t"":59058},{""key"":"" "",""event"":""keyup"",""t"":59138},{""key"":"" "",""event"":""keydown"",""t"":59738},{""key"":"" "",""event"":""keyup"",""t"":59828},{""key"":""ArrowDown"",""event"":""keydown"",""t"":60248},{""key"":""ArrowDown"",""event"":""keyup"",""t"":60318},{""key"":""ArrowLeft"",""event"":""keydown"",""t"":60418},{""key"":""ArrowLeft"",""event"":""keyup"",""t"":60549},{""key"":"" "",""event"":""keydown"",""t"":60757},{""key"":"" "",""event"":""keyup"",""t"":60838},{""key"":"" "",""event"":""keydown"",""t"":61618},{""key"":"" "",""event"":""keyup"",""t"":61701},{""key"":"" "",""event"":""keydown"",""t"":62478},{""key"":"" "",""event"":""keyup"",""t"":62578},{""key"":"" "",""event"":""keydown"",""t"":63368},{""key"":"" "",""event"":""keyup"",""t"":63468},{""key"":"" "",""event"":""keydown"",""t"":64168},{""key"":"" "",""event"":""keyup"",""t"":64247},{""key"":""ArrowLeft"",""event"":""keydown"",""t"":64677},{""key"":""ArrowLeft"",""event"":""keyup"",""t"":64788},{""key"":"" "",""event"":""keydown"",""t"":65497},{""key"":"" "",""event"":""keyup"",""t"":65607},{""key"":"" "",""event"":""keydown"",""t"":66519},{""key"":"" "",""event"":""keyup"",""t"":66598},{""key"":"" "",""event"":""keydown"",""t"":67548},{""key"":"" "",""event"":""keyup"",""t"":67638},{""key"":""ArrowUp"",""event"":""keydown"",""t"":68288},{""key"":""ArrowUp"",""event"":""keyup"",""t"":68418},{""key"":""ArrowDown"",""event"":""keydown"",""t"":68758},{""key"":""ArrowDown"",""event"":""keyup"",""t"":68868},{""key"":""ArrowUp"",""event"":""keydown"",""t"":69198},{""key"":""ArrowUp"",""event"":""keyup"",""t"":69278},{""key"":"" "",""event"":""keydown"",""t"":70268},{""key"":"" "",""event"":""keyup"",""t"":70378},{""key"":"" "",""event"":""keydown"",""t"":71490},{""key"":"" "",""event"":""keyup"",""t"":71578},{""key"":"" "",""event"":""keydown"",""t"":72540},{""key"":"" "",""event"":""keyup"",""t"":72667},{""key"":""ArrowUp"",""event"":""keydown"",""t"":73367},{""key"":""ArrowUp"",""event"":""keyup"",""t"":73408},{""key"":"" "",""event"":""keydown"",""t"":73558},{""key"":"" "",""event"":""keyup"",""t"":73658},{""key"":"" "",""event"":""keydown"",""t"":74777},{""key"":"" "",""event"":""keyup"",""t"":74888},{""key"":"" "",""event"":""keydown"",""t"":75848},{""key"":"" "",""event"":""keyup"",""t"":75917},{""key"":"" "",""event"":""keydown"",""t"":76760},{""key"":"" "",""event"":""keyup"",""t"":76860},{""key"":""ArrowLeft"",""event"":""keydown"",""t"":77657},{""key"":""ArrowLeft"",""event"":""keydown"",""t"":78173},{""key"":""ArrowLeft"",""event"":""keydown"",""t"":78204},{""key"":""ArrowLeft"",""event"":""keydown"",""t"":78234},{""key"":""ArrowLeft"",""event"":""keydown"",""t"":78266},{""key"":""ArrowLeft"",""event"":""keydown"",""t"":78296},{""key"":""ArrowLeft"",""event"":""keydown"",""t"":78328},{""key"":""ArrowLeft"",""event"":""keydown"",""t"":78361},{""key"":""ArrowLeft"",""event"":""keydown"",""t"":78391},{""key"":""ArrowLeft"",""event"":""keyup"",""t"":78398},{""key"":""ArrowLeft"",""event"":""keydown"",""t"":78748},{""key"":""ArrowLeft"",""event"":""keyup"",""t"":78998},{""key"":""ArrowLeft"",""event"":""keydown"",""t"":79667},{""key"":""ArrowLeft"",""event"":""keyup"",""t"":79829},{""key"":"" "",""event"":""keydown"",""t"":80287},{""key"":"" "",""event"":""keyup"",""t"":80388},{""key"":""ArrowUp"",""event"":""keydown"",""t"":80731},{""key"":""ArrowUp"",""event"":""keyup"",""t"":80838},{""key"":""ArrowLeft"",""event"":""keydown"",""t"":80988},{""key"":""ArrowLeft"",""event"":""keyup"",""t"":81130},{""key"":""ArrowUp"",""event"":""keydown"",""t"":81467},{""key"":""ArrowUp"",""event"":""keyup"",""t"":81607},{""key"":""ArrowUp"",""event"":""keydown"",""t"":82017},{""key"":""ArrowUp"",""event"":""keyup"",""t"":82080},{""key"":""ArrowRight"",""event"":""keydown"",""t"":82087},{""key"":""ArrowRight"",""event"":""keyup"",""t"":82238},{""key"":""ArrowRight"",""event"":""keydown"",""t"":82497},{""key"":""ArrowRight"",""event"":""keyup"",""t"":82887},{""key"":""ArrowLeft"",""event"":""keydown"",""t"":83078},{""key"":""ArrowLeft"",""event"":""keyup"",""t"":83207},{""key"":""ArrowRight"",""event"":""keydown"",""t"":83498},{""key"":""ArrowRight"",""event"":""keyup"",""t"":83668},{""key"":""ArrowUp"",""event"":""keydown"",""t"":83687},{""key"":""ArrowUp"",""event"":""keyup"",""t"":83878},{""key"":""ArrowLeft"",""event"":""keydown"",""t"":84067},{""key"":""ArrowLeft"",""event"":""keyup"",""t"":84368},{""key"":""ArrowUp"",""event"":""keydown"",""t"":84617},{""key"":""ArrowUp"",""event"":""keyup"",""t"":84778},{""key"":""ArrowLeft"",""event"":""keydown"",""t"":84887},{""key"":""ArrowLeft"",""event"":""keyup"",""t"":85107},{""key"":""ArrowDown"",""event"":""keydown"",""t"":85207},{""key"":""ArrowDown"",""event"":""keyup"",""t"":85357},{""key"":"" "",""event"":""keydown"",""t"":85778},{""key"":"" "",""event"":""keyup"",""t"":85900},{""key"":""ArrowUp"",""event"":""keydown"",""t"":86107},{""key"":""ArrowUp"",""event"":""keyup"",""t"":86201},{""key"":""ArrowLeft"",""event"":""keydown"",""t"":86467},{""key"":""ArrowLeft"",""event"":""keyup"",""t"":86577},{""key"":""ArrowRight"",""event"":""keydown"",""t"":87017},{""key"":""ArrowRight"",""event"":""keyup"",""t"":87101},{""key"":"" "",""event"":""keydown"",""t"":88017},{""key"":"" "",""event"":""keyup"",""t"":88087},{""key"":"" "",""event"":""keydown"",""t"":88847},{""key"":"" "",""event"":""keyup"",""t"":88948},{""key"":""ArrowRight"",""event"":""keydown"",""t"":90077},{""key"":""ArrowRight"",""event"":""keyup"",""t"":90227},{""key"":""ArrowDown"",""event"":""keydown"",""t"":90257},{""key"":""ArrowDown"",""event"":""keyup"",""t"":90577},{""key"":""ArrowLeft"",""event"":""keydown"",""t"":91438},{""key"":""ArrowLeft"",""event"":""keyup"",""t"":91558},{""key"":"" "",""event"":""keydown"",""t"":91969},{""key"":"" "",""event"":""keyup"",""t"":92079},{""key"":""ArrowDown"",""event"":""keydown"",""t"":92607},{""key"":""ArrowDown"",""event"":""keyup"",""t"":92707},{""key"":""ArrowLeft"",""event"":""keydown"",""t"":93121},{""key"":""ArrowLeft"",""event"":""keyup"",""t"":93398},{""key"":""ArrowUp"",""event"":""keydown"",""t"":93459},{""key"":""ArrowUp"",""event"":""keyup"",""t"":93659},{""key"":"" "",""event"":""keydown"",""t"":94118},{""key"":"" "",""event"":""keyup"",""t"":94219},{""key"":"" "",""event"":""keydown"",""t"":94759},{""key"":"" "",""event"":""keyup"",""t"":94828},{""key"":""ArrowDown"",""event"":""keydown"",""t"":95248},{""key"":""ArrowDown"",""event"":""keyup"",""t"":95407},{""key"":""ArrowUp"",""event"":""keydown"",""t"":95828},{""key"":""ArrowUp"",""event"":""keyup"",""t"":96029},{""key"":"" "",""event"":""keydown"",""t"":96348},{""key"":"" "",""event"":""keyup"",""t"":96439},{""key"":""ArrowUp"",""event"":""keydown"",""t"":96868},{""key"":""ArrowUp"",""event"":""keyup"",""t"":97049},{""key"":""ArrowUp"",""event"":""keydown"",""t"":97468},{""key"":""ArrowUp"",""event"":""keyup"",""t"":97629},{""key"":""ArrowRight"",""event"":""keydown"",""t"":97630},{""key"":""ArrowRight"",""event"":""keyup"",""t"":97809},{""key"":"" "",""event"":""keydown"",""t"":98168},{""key"":"" "",""event"":""keyup"",""t"":98279},{""key"":""ArrowRight"",""event"":""keydown"",""t"":98599},{""key"":""ArrowRight"",""event"":""keyup"",""t"":98728},{""key"":"" "",""event"":""keydown"",""t"":99109},{""key"":"" "",""event"":""keyup"",""t"":99238},{""key"":""ArrowRight"",""event"":""keydown"",""t"":99609},{""key"":""ArrowRight"",""event"":""keyup"",""t"":99718},{""key"":"" "",""event"":""keydown"",""t"":100578},{""key"":"" "",""event"":""keyup"",""t"":100699},{""key"":"" "",""event"":""keydown"",""t"":101778},{""key"":"" "",""event"":""keyup"",""t"":101888},{""key"":""ArrowDown"",""event"":""keydown"",""t"":102361},{""key"":""ArrowUp"",""event"":""keydown"",""t"":102368},{""key"":""ArrowUp"",""event"":""keyup"",""t"":102498},{""key"":""ArrowDown"",""event"":""keyup"",""t"":102699},{""key"":""ArrowDown"",""event"":""keydown"",""t"":103088},{""key"":""ArrowDown"",""event"":""keyup"",""t"":103248},{""key"":""ArrowLeft"",""event"":""keydown"",""t"":103368},{""key"":""ArrowLeft"",""event"":""keyup"",""t"":103549},{""key"":""ArrowLeft"",""event"":""keydown"",""t"":104348},{""key"":""ArrowLeft"",""event"":""keyup"",""t"":104549},{""key"":""ArrowUp"",""event"":""keydown"",""t"":104618},{""key"":""ArrowUp"",""event"":""keyup"",""t"":104739},{""key"":"" "",""event"":""keydown"",""t"":105199},{""key"":"" "",""event"":""keyup"",""t"":105298},{""key"":""ArrowLeft"",""event"":""keydown"",""t"":105808},{""key"":""ArrowLeft"",""event"":""keyup"",""t"":105949},{""key"":"" "",""event"":""keydown"",""t"":106038},{""key"":"" "",""event"":""keyup"",""t"":106139},{""key"":""ArrowRight"",""event"":""keydown"",""t"":107380},{""key"":""ArrowRight"",""event"":""keyup"",""t"":107439},{""key"":"" "",""event"":""keydown"",""t"":107598},{""key"":"" "",""event"":""keyup"",""t"":107688},{""key"":"" "",""event"":""keydown"",""t"":108378},{""key"":"" "",""event"":""keyup"",""t"":108482},{""key"":"" "",""event"":""keydown"",""t"":109278},{""key"":"" "",""event"":""keyup"",""t"":109369},{""key"":""ArrowRight"",""event"":""keydown"",""t"":109900},{""key"":""ArrowRight"",""event"":""keyup"",""t"":109998},{""key"":"" "",""event"":""keydown"",""t"":110358},{""key"":"" "",""event"":""keyup"",""t"":110469},{""key"":"" "",""event"":""keydown"",""t"":111438},{""key"":"" "",""event"":""keyup"",""t"":111550},{""key"":""ArrowRight"",""event"":""keydown"",""t"":111618},{""key"":""ArrowRight"",""event"":""keyup"",""t"":111751},{""key"":"" "",""event"":""keydown"",""t"":112288},{""key"":"" "",""event"":""keyup"",""t"":112408},{""key"":""ArrowLeft"",""event"":""keydown"",""t"":113058},{""key"":""ArrowLeft"",""event"":""keyup"",""t"":113128},{""key"":"" "",""event"":""keydown"",""t"":113848},{""key"":"" "",""event"":""keyup"",""t"":113949},{""key"":"" "",""event"":""keydown"",""t"":114828},{""key"":"" "",""event"":""keyup"",""t"":114929},{""key"":""ArrowLeft"",""event"":""keydown"",""t"":115620},{""key"":""ArrowLeft"",""event"":""keyup"",""t"":115729},{""key"":"" "",""event"":""keydown"",""t"":115920},{""key"":"" "",""event"":""keyup"",""t"":116008},{""key"":"" "",""event"":""keydown"",""t"":116948},{""key"":"" "",""event"":""keyup"",""t"":117048},{""key"":""ArrowRight"",""event"":""keydown"",""t"":117370},{""key"":""ArrowRight"",""event"":""keyup"",""t"":117471},{""key"":"" "",""event"":""keydown"",""t"":118528},{""key"":"" "",""event"":""keyup"",""t"":118629},{""key"":"" "",""event"":""keydown"",""t"":119239},{""key"":"" "",""event"":""keyup"",""t"":119339},{""key"":""ArrowLeft"",""event"":""keydown"",""t"":119968},{""key"":""ArrowLeft"",""event"":""keyup"",""t"":120048},{""key"":"" "",""event"":""keydown"",""t"":120928},{""key"":"" "",""event"":""keyup"",""t"":121028},{""key"":"" "",""event"":""keydown"",""t"":121690},{""key"":"" "",""event"":""keyup"",""t"":121759},{""key"":""ArrowRight"",""event"":""keydown"",""t"":122090},{""key"":""ArrowRight"",""event"":""keyup"",""t"":122218},{""key"":""ArrowDown"",""event"":""keydown"",""t"":123018},{""key"":""ArrowDown"",""event"":""keyup"",""t"":123098},{""key"":""ArrowUp"",""event"":""keydown"",""t"":123998},{""key"":""ArrowUp"",""event"":""keyup"",""t"":124088},{""key"":"" "",""event"":""keydown"",""t"":125818},{""key"":"" "",""event"":""keyup"",""t"":125929},{""key"":"" "",""event"":""keydown"",""t"":126568},{""key"":"" "",""event"":""keyup"",""t"":126669},{""key"":"" "",""event"":""keydown"",""t"":128038},{""key"":"" "",""event"":""keyup"",""t"":128168},{""key"":"" "",""event"":""keydown"",""t"":128829},{""key"":"" "",""event"":""keyup"",""t"":128918},{""key"":""ArrowLeft"",""event"":""keydown"",""t"":129958},{""key"":""ArrowLeft"",""event"":""keyup"",""t"":130048},{""key"":"" "",""event"":""keydown"",""t"":131188},{""key"":"" "",""event"":""keyup"",""t"":131298},{""key"":"" "",""event"":""keydown"",""t"":132198},{""key"":"" "",""event"":""keyup"",""t"":132288},{""key"":""ArrowDown"",""event"":""keydown"",""t"":132928},{""key"":""ArrowDown"",""event"":""keyup"",""t"":133019},{""key"":""ArrowUp"",""event"":""keydown"",""t"":133838},{""key"":""ArrowUp"",""event"":""keyup"",""t"":133928},{""key"":"" "",""event"":""keydown"",""t"":134038},{""key"":"" "",""event"":""keyup"",""t"":134128},{""key"":"" "",""event"":""keydown"",""t"":134928},{""key"":"" "",""event"":""keyup"",""t"":135029},{""key"":"" "",""event"":""keydown"",""t"":136051},{""key"":"" "",""event"":""keyup"",""t"":136138},{""key"":"" "",""event"":""keydown"",""t"":136728},{""key"":"" "",""event"":""keyup"",""t"":136808},{""key"":"" "",""event"":""keydown"",""t"":137748},{""key"":"" "",""event"":""keyup"",""t"":137828},{""key"":"" "",""event"":""keydown"",""t"":138569},{""key"":"" "",""event"":""keyup"",""t"":138669},{""key"":"" "",""event"":""keydown"",""t"":139599},{""key"":"" "",""event"":""keyup"",""t"":139708},{""key"":"" "",""event"":""keydown"",""t"":141370},{""key"":"" "",""event"":""keyup"",""t"":141478},{""key"":""ArrowDown"",""event"":""keydown"",""t"":141858},{""key"":""ArrowUp"",""event"":""keydown"",""t"":141871},{""key"":""ArrowUp"",""event"":""keyup"",""t"":141900},{""key"":""ArrowDown"",""event"":""keyup"",""t"":141938},{""key"":"" "",""event"":""keydown"",""t"":143048},{""key"":"" "",""event"":""keyup"",""t"":143168},{""key"":"" "",""event"":""keydown"",""t"":144008},{""key"":"" "",""event"":""keyup"",""t"":144128},{""key"":""ArrowRight"",""event"":""keydown"",""t"":145068},{""key"":""ArrowRight"",""event"":""keyup"",""t"":145190},{""key"":"" "",""event"":""keydown"",""t"":146169},{""key"":"" "",""event"":""keyup"",""t"":146291},{""key"":"" "",""event"":""keydown"",""t"":146848},{""key"":"" "",""event"":""keyup"",""t"":146958},{""key"":"" "",""event"":""keydown"",""t"":147709},{""key"":"" "",""event"":""keyup"",""t"":147809},{""key"":""ArrowLeft"",""event"":""keydown"",""t"":148159},{""key"":""ArrowLeft"",""event"":""keyup"",""t"":148278},{""key"":""ArrowUp"",""event"":""keydown"",""t"":149498},{""key"":""ArrowUp"",""event"":""keyup"",""t"":149598},{""key"":"" "",""event"":""keydown"",""t"":150218},{""key"":"" "",""event"":""keyup"",""t"":150318},{""key"":""ArrowRight"",""event"":""keydown"",""t"":150528},{""key"":""ArrowRight"",""event"":""keyup"",""t"":150648},{""key"":"" "",""event"":""keydown"",""t"":151148},{""key"":"" "",""event"":""keyup"",""t"":151261},{""key"":"" "",""event"":""keydown"",""t"":152318},{""key"":"" "",""event"":""keyup"",""t"":152418},{""key"":""ArrowDown"",""event"":""keydown"",""t"":152778},{""key"":""ArrowDown"",""event"":""keyup"",""t"":152888},{""key"":"" "",""event"":""keydown"",""t"":153358},{""key"":"" "",""event"":""keyup"",""t"":153479},{""key"":"" "",""event"":""keydown"",""t"":154279},{""key"":"" "",""event"":""keyup"",""t"":154388},{""key"":""ArrowRight"",""event"":""keydown"",""t"":155068},{""key"":""ArrowUp"",""event"":""keydown"",""t"":155530},{""key"":""ArrowUp"",""event"":""keydown"",""t"":156037},{""key"":""ArrowUp"",""event"":""keydown"",""t"":156068},{""key"":""ArrowUp"",""event"":""keydown"",""t"":156099},{""key"":""ArrowUp"",""event"":""keydown"",""t"":156130},{""key"":""ArrowUp"",""event"":""keydown"",""t"":156163},{""key"":""ArrowUp"",""event"":""keydown"",""t"":156194},{""key"":""ArrowUp"",""event"":""keydown"",""t"":156225},{""key"":""ArrowUp"",""event"":""keydown"",""t"":156272},{""key"":""ArrowUp"",""event"":""keydown"",""t"":156303},{""key"":""ArrowUp"",""event"":""keydown"",""t"":156335},{""key"":""ArrowUp"",""event"":""keydown"",""t"":156365},{""key"":""ArrowUp"",""event"":""keydown"",""t"":156398},{""key"":""ArrowUp"",""event"":""keydown"",""t"":156431},{""key"":""ArrowUp"",""event"":""keydown"",""t"":156459},{""key"":""ArrowUp"",""event"":""keydown"",""t"":156489},{""key"":""ArrowUp"",""event"":""keydown"",""t"":156536},{""key"":""ArrowUp"",""event"":""keydown"",""t"":156567},{""key"":""ArrowUp"",""event"":""keydown"",""t"":156598},{""key"":""ArrowUp"",""event"":""keydown"",""t"":156631},{""key"":""ArrowUp"",""event"":""keydown"",""t"":156661},{""key"":""ArrowUp"",""event"":""keydown"",""t"":156692},{""key"":""ArrowUp"",""event"":""keydown"",""t"":156722},{""key"":""ArrowUp"",""event"":""keydown"",""t"":156767},{""key"":""ArrowUp"",""event"":""keydown"",""t"":156798},{""key"":""ArrowUp"",""event"":""keydown"",""t"":156831},{""key"":""ArrowUp"",""event"":""keydown"",""t"":156865},{""key"":""ArrowUp"",""event"":""keydown"",""t"":156893},{""key"":""ArrowUp"",""event"":""keydown"",""t"":156924},{""key"":""ArrowUp"",""event"":""keydown"",""t"":156954},{""key"":""ArrowUp"",""event"":""keydown"",""t"":156986},{""key"":""ArrowUp"",""event"":""keydown"",""t"":157031},{""key"":""ArrowUp"",""event"":""keydown"",""t"":157065},{""key"":""ArrowUp"",""event"":""keydown"",""t"":157094},{""key"":""ArrowUp"",""event"":""keyup"",""t"":157098},{""key"":""ArrowUp"",""event"":""keydown"",""t"":157518},{""key"":""ArrowUp"",""event"":""keyup"",""t"":157688},{""key"":""ArrowRight"",""event"":""keyup"",""t"":157738},{""key"":""ArrowUp"",""event"":""keydown"",""t"":158188},{""key"":""ArrowUp"",""event"":""keyup"",""t"":158238},{""key"":""ArrowUp"",""event"":""keydown"",""t"":158468},{""key"":""ArrowUp"",""event"":""keyup"",""t"":158568},{""key"":""ArrowUp"",""event"":""keydown"",""t"":159100},{""key"":""ArrowUp"",""event"":""keyup"",""t"":159138},{""key"":"" "",""event"":""keydown"",""t"":159778},{""key"":"" "",""event"":""keyup"",""t"":159928},{""key"":"" "",""event"":""keydown"",""t"":160310},{""key"":"" "",""event"":""keyup"",""t"":160418},{""key"":"" "",""event"":""keydown"",""t"":160888},{""key"":"" "",""event"":""keyup"",""t"":161002},{""key"":"" "",""event"":""keydown"",""t"":161478},{""key"":"" "",""event"":""keyup"",""t"":161588},{""key"":"" "",""event"":""keydown"",""t"":162108},{""key"":"" "",""event"":""keyup"",""t"":162228},{""key"":"" "",""event"":""keydown"",""t"":162708},{""key"":"" "",""event"":""keyup"",""t"":162828},{""key"":"" "",""event"":""keydown"",""t"":163338},{""key"":"" "",""event"":""keyup"",""t"":163448},{""key"":"" "",""event"":""keydown"",""t"":164028},{""key"":"" "",""event"":""keyup"",""t"":164138},{""key"":"" "",""event"":""keydown"",""t"":164570},{""key"":"" "",""event"":""keyup"",""t"":164679},{""key"":"" "",""event"":""keydown"",""t"":165238},{""key"":"" "",""event"":""keyup"",""t"":165348},{""key"":""ArrowLeft"",""event"":""keydown"",""t"":165458},{""key"":""ArrowLeft"",""event"":""keyup"",""t"":165588},{""key"":"" "",""event"":""keydown"",""t"":165928},{""key"":"" "",""event"":""keyup"",""t"":166058},{""key"":"" "",""event"":""keydown"",""t"":166758},{""key"":"" "",""event"":""keyup"",""t"":166871},{""key"":"" "",""event"":""keydown"",""t"":167589},{""key"":"" "",""event"":""keyup"",""t"":167698},{""key"":"" "",""event"":""keydown"",""t"":168389},{""key"":"" "",""event"":""keyup"",""t"":168508},{""key"":"" "",""event"":""keydown"",""t"":169218},{""key"":"" "",""event"":""keyup"",""t"":169328},{""key"":""ArrowRight"",""event"":""keydown"",""t"":169718},{""key"":""ArrowRight"",""event"":""keyup"",""t"":169778},{""key"":""ArrowUp"",""event"":""keydown"",""t"":170128},{""key"":""ArrowUp"",""event"":""keyup"",""t"":170199},{""key"":"" "",""event"":""keydown"",""t"":170468},{""key"":"" "",""event"":""keyup"",""t"":170591},{""key"":""ArrowRight"",""event"":""keydown"",""t"":171269},{""key"":""ArrowRight"",""event"":""keyup"",""t"":171391},{""key"":""ArrowLeft"",""event"":""keydown"",""t"":171818},{""key"":""ArrowLeft"",""event"":""keyup"",""t"":171898},{""key"":""ArrowRight"",""event"":""keydown"",""t"":172228},{""key"":""ArrowRight"",""event"":""keyup"",""t"":172328},{""key"":"" "",""event"":""keydown"",""t"":173038},{""key"":"" "",""event"":""keyup"",""t"":173159},{""key"":"" "",""event"":""keydown"",""t"":173828},{""key"":"" "",""event"":""keyup"",""t"":173938},{""key"":"" "",""event"":""keydown"",""t"":174548},{""key"":"" "",""event"":""keyup"",""t"":174648},{""key"":"" "",""event"":""keydown"",""t"":175638},{""key"":"" "",""event"":""keyup"",""t"":175761},{""key"":"" "",""event"":""keydown"",""t"":176368},{""key"":"" "",""event"":""keyup"",""t"":176478},{""key"":""ArrowLeft"",""event"":""keydown"",""t"":176798},{""key"":""ArrowLeft"",""event"":""keyup"",""t"":176918},{""key"":"" "",""event"":""keydown"",""t"":178198},{""key"":"" "",""event"":""keyup"",""t"":178338},{""key"":""ArrowDown"",""event"":""keydown"",""t"":178958},{""key"":""ArrowDown"",""event"":""keyup"",""t"":179058},{""key"":""ArrowUp"",""event"":""keydown"",""t"":179708},{""key"":""ArrowUp"",""event"":""keyup"",""t"":179780},{""key"":""ArrowLeft"",""event"":""keydown"",""t"":179998},{""key"":""ArrowLeft"",""event"":""keyup"",""t"":180088},{""key"":""ArrowDown"",""event"":""keydown"",""t"":180331},{""key"":""ArrowDown"",""event"":""keyup"",""t"":180438},{""key"":""ArrowRight"",""event"":""keydown"",""t"":180659},{""key"":""ArrowRight"",""event"":""keyup"",""t"":180748},{""key"":""ArrowLeft"",""event"":""keydown"",""t"":181019},{""key"":""ArrowLeft"",""event"":""keyup"",""t"":181088},{""key"":""ArrowUp"",""event"":""keydown"",""t"":181599},{""key"":""ArrowUp"",""event"":""keyup"",""t"":181649},{""key"":"" "",""event"":""keydown"",""t"":182499},{""key"":"" "",""event"":""keyup"",""t"":182608},{""key"":""ArrowRight"",""event"":""keydown"",""t"":182900},{""key"":""ArrowRight"",""event"":""keyup"",""t"":183000},{""key"":"" "",""event"":""keydown"",""t"":183259},{""key"":"" "",""event"":""keyup"",""t"":183379},{""key"":""ArrowLeft"",""event"":""keydown"",""t"":183950},{""key"":""ArrowLeft"",""event"":""keyup"",""t"":184028},{""key"":""ArrowUp"",""event"":""keydown"",""t"":184709},{""key"":""ArrowUp"",""event"":""keyup"",""t"":184800},{""key"":""ArrowRight"",""event"":""keydown"",""t"":184909},{""key"":""ArrowRight"",""event"":""keyup"",""t"":184989},{""key"":"" "",""event"":""keydown"",""t"":185419},{""key"":"" "",""event"":""keyup"",""t"":185529},{""key"":"" "",""event"":""keydown"",""t"":187429},{""key"":"" "",""event"":""keyup"",""t"":187569},{""key"":"" "",""event"":""keydown"",""t"":187999},{""key"":"" "",""event"":""keyup"",""t"":188109},{""key"":"" "",""event"":""keydown"",""t"":188709},{""key"":"" "",""event"":""keyup"",""t"":188809},{""key"":"" "",""event"":""keydown"",""t"":189429},{""key"":"" "",""event"":""keyup"",""t"":189539},{""key"":""ArrowLeft"",""event"":""keydown"",""t"":189820},{""key"":""ArrowLeft"",""event"":""keyup"",""t"":189929},{""key"":"" "",""event"":""keydown"",""t"":190370},{""key"":"" "",""event"":""keyup"",""t"":190459},{""key"":"" "",""event"":""keydown"",""t"":191639},{""key"":"" "",""event"":""keyup"",""t"":191739},{""key"":"" "",""event"":""keydown"",""t"":192539},{""key"":"" "",""event"":""keyup"",""t"":192639},{""key"":"" "",""event"":""keydown"",""t"":193709},{""key"":"" "",""event"":""keyup"",""t"":193809},{""key"":"" "",""event"":""keydown"",""t"":194699},{""key"":"" "",""event"":""keyup"",""t"":194849},{""key"":"" "",""event"":""keydown"",""t"":195499},{""key"":"" "",""event"":""keyup"",""t"":195642},{""key"":""ArrowRight"",""event"":""keydown"",""t"":196049},{""key"":""ArrowRight"",""event"":""keyup"",""t"":196129},{""key"":"" "",""event"":""keydown"",""t"":197079},{""key"":"" "",""event"":""keyup"",""t"":197193},{""key"":"" "",""event"":""keydown"",""t"":198189},{""key"":"" "",""event"":""keyup"",""t"":198299},{""key"":""ArrowDown"",""event"":""keydown"",""t"":198539},{""key"":""ArrowUp"",""event"":""keydown"",""t"":198540},{""key"":""ArrowUp"",""event"":""keyup"",""t"":198599},{""key"":""ArrowDown"",""event"":""keyup"",""t"":198619},{""key"":""ArrowLeft"",""event"":""keydown"",""t"":198860},{""key"":""ArrowLeft"",""event"":""keyup"",""t"":198989},{""key"":"" "",""event"":""keydown"",""t"":200829},{""key"":"" "",""event"":""keyup"",""t"":200949},{""key"":"" "",""event"":""keydown"",""t"":201659},{""key"":"" "",""event"":""keyup"",""t"":201769},{""key"":"" "",""event"":""keydown"",""t"":202609},{""key"":"" "",""event"":""keyup"",""t"":202699},{""key"":""ArrowUp"",""event"":""keydown"",""t"":202989},{""key"":""ArrowUp"",""event"":""keyup"",""t"":203099},{""key"":"" "",""event"":""keydown"",""t"":204731},{""key"":"" "",""event"":""keyup"",""t"":204830},{""key"":"" "",""event"":""keydown"",""t"":205959},{""key"":"" "",""event"":""keyup"",""t"":206089},{""key"":"" "",""event"":""keydown"",""t"":206699},{""key"":"" "",""event"":""keyup"",""t"":206800},{""key"":"" "",""event"":""keydown"",""t"":207359},{""key"":"" "",""event"":""keyup"",""t"":207459},{""key"":"" "",""event"":""keydown"",""t"":208203},{""key"":"" "",""event"":""keyup"",""t"":208289},{""key"":"" "",""event"":""keydown"",""t"":208929},{""key"":"" "",""event"":""keyup"",""t"":209051},{""key"":""ArrowRight"",""event"":""keydown"",""t"":209301},{""key"":""ArrowRight"",""event"":""keyup"",""t"":209409},{""key"":"" "",""event"":""keydown"",""t"":209619},{""key"":"" "",""event"":""keyup"",""t"":209729},{""key"":"" "",""event"":""keydown"",""t"":210439},{""key"":"" "",""event"":""keyup"",""t"":210579},{""key"":"" "",""event"":""keydown"",""t"":211269},{""key"":"" "",""event"":""keyup"",""t"":211369},{""key"":""ArrowLeft"",""event"":""keydown"",""t"":215759},{""key"":""ArrowLeft"",""event"":""keyup"",""t"":215829},{""key"":""ArrowLeft"",""event"":""keydown"",""t"":215989},{""key"":""ArrowLeft"",""event"":""keyup"",""t"":216249},{""key"":""ArrowDown"",""event"":""keydown"",""t"":216521},{""key"":""ArrowDown"",""event"":""keyup"",""t"":216629},{""key"":""Enter"",""event"":""keydown"",""t"":221929}]","[]"
"232051","","{""creativity-rating"":2,""creativity-free-response"":""Plenty of rhythm games out there, but the concept is at least a bit interesting"",""originality-rating"":4,""originality-free-response"":""First rhythm game I've played where you steal elements of the music."",""effectiveness-rating"":1,""effectiveness-free-response"":""I love rhythm games and I think, conceptually, it's at least an okay idea, but the gameplay isn't particularly great. You can't rely on the rhythm of the music so the timing is very off and feels bad."",""authenticity-rating"":2,""attention-check"":3,""intentionality-rating"":3,""authenticity-intentionality-free-response"":""There's at least a kernel of potential in there, but it needs work to actually make it pop.""}","evaluation-claude-4-decibel","survey","8","1312208","0.0-8.0","631610af8e747093cd90e00d","6987c292780adf01bb926159","69a4ede0e3517a6c95b2d699","","","","","","",""
"18819","","{""concept-creativity-rating"":4,""concept-implementation-rating"":5,""question1"":null}","concept-claude-4-decibel","survey","9","1331043","0.0-9.0","631610af8e747093cd90e00d","6987c292780adf01bb926159","69a4ede0e3517a6c95b2d699","","","","","","",""
"1658","You have completed your evaluation of the second video game.<br><br>Press any key to proceed to the final game."," ","pre-game-three-message","html-keyboard-response","10","1332702","0.0-10.0","631610af8e747093cd90e00d","6987c292780adf01bb926159","69a4ede0e3517a6c95b2d699","","","","","","",""
"155744","","","game-gemini-4-substratum","plugin-game-iframe","11","1488470","0.0-11.0","631610af8e747093cd90e00d","6987c292780adf01bb926159","69a4ede0e3517a6c95b2d699","game-complete","level 4/3","{""stage"":""level 4/3"",""detail"":{""levelIndex"":3,""levelNum"":4,""totalLevels"":3,""progressPct"":null,""heroX"":850,""heroMoving"":true,""isGameOver"":true}}","{""result"":""win"",""levelsCompleted"":3}","null","[{""key"":"" "",""event"":""keyup"",""t"":101},{""key"":""Enter"",""event"":""keydown"",""t"":155730}]","[]"
"224302","","{""creativity-rating"":2,""creativity-free-response"":""Gameplay was a bit creative but visually it was boring."",""originality-rating"":3,""originality-free-response"":""Not seen too many games where you directly manipulate the environment to win the level, but it was very under-baked."",""effectiveness-rating"":1,""effectiveness-free-response"":""Gameplay was novel but frustrating control wise. Second stage was particularly annoying to do."",""authenticity-rating"":3,""attention-check"":3,""intentionality-rating"":3,""authenticity-intentionality-free-response"":""While it was a bit janky, I can sort of see what the intentional was.""}","evaluation-gemini-4-substratum","survey","12","1712790","0.0-12.0","631610af8e747093cd90e00d","6987c292780adf01bb926159","69a4ede0e3517a6c95b2d699","","","","","","",""
"31343","","{""concept-creativity-rating"":4,""concept-implementation-rating"":5,""question1"":null}","concept-gemini-4-substratum","survey","13","1744145","0.0-13.0","631610af8e747093cd90e00d","6987c292780adf01bb926159","69a4ede0e3517a6c95b2d699","","","","","","",""
"2100","You have completed all of the games!<br><br>Press any key to proceed to some final questions before returning to Prolific."," ","pre-baseline-questions","html-keyboard-response","14","1746246","0.0-14.0","631610af8e747093cd90e00d","6987c292780adf01bb926159","69a4ede0e3517a6c95b2d699","","","","","","",""
"21941","","{""baseline_originality_rating"":5,""baseline_effectiveness_rating"":5,""baseline_authenticity_rating"":4,""baseline_intentionality_rating"":5}","baseline-questions-rating","survey","15","1768197","0.0-15.0","631610af8e747093cd90e00d","6987c292780adf01bb926159","69a4ede0e3517a6c95b2d699","","","","","","",""
"117238","","{""ai_aware_question"":""I judged them for what they were - knowing they were AI made me not expect too much from them, so it set my expectations to where they should be.""}","ai-aware-question","survey","16","1885441","0.0-16.0","631610af8e747093cd90e00d","6987c292780adf01bb926159","69a4ede0e3517a6c95b2d699","","","","","","",""
"4463","
        <p> You have completed the experiment! Press any key to save your data and get redirected back to Prolific. <strong>Please do not close the page until you have been redirected to Prolific.</strong> <p>
      "," ","goodbye","html-keyboard-response","17","1889905","0.0-17.0","631610af8e747093cd90e00d","6987c292780adf01bb926159","69a4ede0e3517a6c95b2d699","","","","","","",""
