"rt","stimulus","response","phase","trial_type","trial_index","time_elapsed","internal_node_id","prolific_subject_id","study_id","session_id","exit_reason","exit_stage","exit_progress","game_data","emergency_text","keystrokes","mouse_events"
"4273","Welcome!<br><br>In this study, you will play three short video games that were generated by Artificial Intelligence (AI) and complete a short survey after each game.<br><br>Please make sure you are in a quiet environment where you can focus for the duration of the study. Some games may use sound, so please ensure that your device's volume is not muted.<br><br>Press any key to begin.","alt","welcome-message","html-keyboard-response","0","4280","0.0-0.0","6992fdf8bd688e6c9f7627b8","6987c292780adf01bb926159","69a5f4a0ca5ef1ac58f695c3","","","","","","",""
"16038","","{""commitment-check"":[""yes""]}","commitment-check","survey","1","20357","0.0-1.0","6992fdf8bd688e6c9f7627b8","6987c292780adf01bb926159","69a5f4a0ca5ef1ac58f695c3","","","","","","",""
"5256","Press any key to proceed to the first video game. Should you encounter a game-breaking bug, please report the issue in the Menu tab to the right of the screen."," ","pre-game-one-message","html-keyboard-response","2","25614","0.0-2.0","6992fdf8bd688e6c9f7627b8","6987c292780adf01bb926159","69a5f4a0ca5ef1ac58f695c3","","","","","","",""
"133981","","","game-claude-4-decibel","plugin-game-iframe","3","159820","0.0-3.0","6992fdf8bd688e6c9f7627b8","6987c292780adf01bb926159","69a5f4a0ca5ef1ac58f695c3","game-complete","silenced 4/4 (phase 5)","{""stage"":""silenced 4/4 (phase 5)"",""detail"":{""instrumentsSilenced"":4,""currentPhase"":5,""elapsedMs"":101702.85999999993,""score"":920}}","{""result"":""win"",""finalScore"":1318,""instrumentsSilenced"":4,""elapsedTime"":101702.85999999993}","null","[{""key"":"" "",""event"":""keyup"",""t"":84},{""key"":"" "",""event"":""keydown"",""t"":21184},{""key"":"" "",""event"":""keyup"",""t"":21284},{""key"":""d"",""event"":""keydown"",""t"":22521},{""key"":""d"",""event"":""keyup"",""t"":22988},{""key"":""w"",""event"":""keydown"",""t"":23274},{""key"":""w"",""event"":""keyup"",""t"":23510},{""key"":""a"",""event"":""keydown"",""t"":23650},{""key"":""a"",""event"":""keyup"",""t"":24023},{""key"":""a"",""event"":""keydown"",""t"":24465},{""key"":""a"",""event"":""keyup"",""t"":24790},{""key"":""w"",""event"":""keydown"",""t"":25294},{""key"":""w"",""event"":""keyup"",""t"":25410},{""key"":""a"",""event"":""keydown"",""t"":25650},{""key"":""a"",""event"":""keyup"",""t"":25773},{""key"":"" "",""event"":""keydown"",""t"":26145},{""key"":"" "",""event"":""keyup"",""t"":26252},{""key"":""d"",""event"":""keydown"",""t"":26619},{""key"":""d"",""event"":""keyup"",""t"":26759},{""key"":"" "",""event"":""keydown"",""t"":26875},{""key"":"" "",""event"":""keyup"",""t"":26974},{""key"":""a"",""event"":""keydown"",""t"":27348},{""key"":""a"",""event"":""keyup"",""t"":27458},{""key"":"" "",""event"":""keydown"",""t"":27976},{""key"":"" "",""event"":""keyup"",""t"":28103},{""key"":"" "",""event"":""keydown"",""t"":28593},{""key"":"" "",""event"":""keyup"",""t"":28715},{""key"":""w"",""event"":""keydown"",""t"":29248},{""key"":""w"",""event"":""keyup"",""t"":29353},{""key"":"" "",""event"":""keydown"",""t"":29760},{""key"":"" "",""event"":""keyup"",""t"":29893},{""key"":"" "",""event"":""keydown"",""t"":30294},{""key"":"" "",""event"":""keyup"",""t"":30417},{""key"":""w"",""event"":""keydown"",""t"":30989},{""key"":""w"",""event"":""keyup"",""t"":31125},{""key"":"" "",""event"":""keydown"",""t"":31338},{""key"":"" "",""event"":""keyup"",""t"":31470},{""key"":"" "",""event"":""keydown"",""t"":31974},{""key"":""a"",""event"":""keydown"",""t"":32056},{""key"":"" "",""event"":""keyup"",""t"":32115},{""key"":""a"",""event"":""keyup"",""t"":32189},{""key"":""s"",""event"":""keydown"",""t"":33200},{""key"":""s"",""event"":""keyup"",""t"":33273},{""key"":""w"",""event"":""keydown"",""t"":33742},{""key"":""w"",""event"":""keyup"",""t"":33804},{""key"":"" "",""event"":""keydown"",""t"":35005},{""key"":"" "",""event"":""keyup"",""t"":35108},{""key"":"" "",""event"":""keydown"",""t"":35544},{""key"":"" "",""event"":""keyup"",""t"":35665},{""key"":"" "",""event"":""keydown"",""t"":35952},{""key"":"" "",""event"":""keyup"",""t"":36075},{""key"":""s"",""event"":""keydown"",""t"":36500},{""key"":""s"",""event"":""keyup"",""t"":36612},{""key"":""a"",""event"":""keydown"",""t"":36988},{""key"":""a"",""event"":""keyup"",""t"":37082},{""key"":"" "",""event"":""keydown"",""t"":37735},{""key"":"" "",""event"":""keyup"",""t"":37850},{""key"":""d"",""event"":""keydown"",""t"":40943},{""key"":""d"",""event"":""keydown"",""t"":41460},{""key"":""d"",""event"":""keydown"",""t"":41493},{""key"":""d"",""event"":""keydown"",""t"":41526},{""key"":""d"",""event"":""keydown"",""t"":41559},{""key"":""d"",""event"":""keydown"",""t"":41594},{""key"":""d"",""event"":""keydown"",""t"":41626},{""key"":""d"",""event"":""keydown"",""t"":41660},{""key"":""d"",""event"":""keydown"",""t"":41692},{""key"":""d"",""event"":""keydown"",""t"":41726},{""key"":""d"",""event"":""keydown"",""t"":41758},{""key"":""d"",""event"":""keydown"",""t"":41792},{""key"":""d"",""event"":""keydown"",""t"":41830},{""key"":""d"",""event"":""keydown"",""t"":41858},{""key"":""d"",""event"":""keydown"",""t"":41894},{""key"":""d"",""event"":""keydown"",""t"":41925},{""key"":""d"",""event"":""keydown"",""t"":41958},{""key"":""d"",""event"":""keyup"",""t"":41971},{""key"":""d"",""event"":""keydown"",""t"":42266},{""key"":""d"",""event"":""keyup"",""t"":42650},{""key"":""d"",""event"":""keydown"",""t"":42951},{""key"":""d"",""event"":""keyup"",""t"":43070},{""key"":"" "",""event"":""keydown"",""t"":43869},{""key"":"" "",""event"":""keyup"",""t"":44003},{""key"":"" "",""event"":""keydown"",""t"":44384},{""key"":"" "",""event"":""keyup"",""t"":44634},{""key"":"" "",""event"":""keydown"",""t"":45138},{""key"":"" "",""event"":""keyup"",""t"":45279},{""key"":"" "",""event"":""keydown"",""t"":45659},{""key"":"" "",""event"":""keyup"",""t"":45783},{""key"":"" "",""event"":""keydown"",""t"":46215},{""key"":"" "",""event"":""keyup"",""t"":46341},{""key"":"" "",""event"":""keydown"",""t"":47472},{""key"":"" "",""event"":""keyup"",""t"":47600},{""key"":"" "",""event"":""keydown"",""t"":47887},{""key"":"" "",""event"":""keyup"",""t"":48029},{""key"":"" "",""event"":""keydown"",""t"":48241},{""key"":"" "",""event"":""keyup"",""t"":48358},{""key"":"" "",""event"":""keydown"",""t"":48792},{""key"":"" "",""event"":""keyup"",""t"":48905},{""key"":""a"",""event"":""keydown"",""t"":49337},{""key"":""a"",""event"":""keyup"",""t"":49468},{""key"":""d"",""event"":""keydown"",""t"":49740},{""key"":""d"",""event"":""keyup"",""t"":49823},{""key"":"" "",""event"":""keydown"",""t"":50359},{""key"":"" "",""event"":""keyup"",""t"":50465},{""key"":"" "",""event"":""keydown"",""t"":50818},{""key"":"" "",""event"":""keyup"",""t"":50937},{""key"":"" "",""event"":""keydown"",""t"":51250},{""key"":"" "",""event"":""keyup"",""t"":51387},{""key"":""s"",""event"":""keydown"",""t"":51884},{""key"":""s"",""event"":""keyup"",""t"":51965},{""key"":"" "",""event"":""keydown"",""t"":52108},{""key"":"" "",""event"":""keyup"",""t"":52237},{""key"":""w"",""event"":""keydown"",""t"":52821},{""key"":""w"",""event"":""keyup"",""t"":52902},{""key"":""d"",""event"":""keydown"",""t"":53166},{""key"":""d"",""event"":""keyup"",""t"":53226},{""key"":"" "",""event"":""keydown"",""t"":53865},{""key"":"" "",""event"":""keyup"",""t"":53987},{""key"":"" "",""event"":""keydown"",""t"":54410},{""key"":"" "",""event"":""keyup"",""t"":54526},{""key"":"" "",""event"":""keydown"",""t"":54898},{""key"":"" "",""event"":""keyup"",""t"":55038},{""key"":"" "",""event"":""keydown"",""t"":55356},{""key"":"" "",""event"":""keyup"",""t"":55507},{""key"":"" "",""event"":""keydown"",""t"":55892},{""key"":"" "",""event"":""keyup"",""t"":56050},{""key"":"" "",""event"":""keydown"",""t"":56465},{""key"":"" "",""event"":""keyup"",""t"":56602},{""key"":"" "",""event"":""keydown"",""t"":56937},{""key"":"" "",""event"":""keyup"",""t"":57087},{""key"":"" "",""event"":""keydown"",""t"":57774},{""key"":"" "",""event"":""keyup"",""t"":57948},{""key"":"" "",""event"":""keydown"",""t"":58162},{""key"":"" "",""event"":""keyup"",""t"":58370},{""key"":"" "",""event"":""keydown"",""t"":58499},{""key"":"" "",""event"":""keyup"",""t"":58673},{""key"":"" "",""event"":""keydown"",""t"":59066},{""key"":"" "",""event"":""keyup"",""t"":59197},{""key"":"" "",""event"":""keydown"",""t"":59684},{""key"":"" "",""event"":""keyup"",""t"":59837},{""key"":"" "",""event"":""keydown"",""t"":60316},{""key"":"" "",""event"":""keyup"",""t"":60482},{""key"":"" "",""event"":""keydown"",""t"":61105},{""key"":"" "",""event"":""keyup"",""t"":61244},{""key"":"" "",""event"":""keydown"",""t"":61617},{""key"":"" "",""event"":""keyup"",""t"":61746},{""key"":""w"",""event"":""keydown"",""t"":62489},{""key"":""w"",""event"":""keyup"",""t"":62585},{""key"":"" "",""event"":""keydown"",""t"":62965},{""key"":"" "",""event"":""keyup"",""t"":63098},{""key"":"" "",""event"":""keydown"",""t"":63483},{""key"":"" "",""event"":""keyup"",""t"":63615},{""key"":""s"",""event"":""keydown"",""t"":64209},{""key"":""s"",""event"":""keydown"",""t"":64726},{""key"":""s"",""event"":""keydown"",""t"":64761},{""key"":""s"",""event"":""keydown"",""t"":64791},{""key"":""s"",""event"":""keydown"",""t"":64826},{""key"":""s"",""event"":""keydown"",""t"":64858},{""key"":""s"",""event"":""keydown"",""t"":64890},{""key"":""s"",""event"":""keydown"",""t"":64924},{""key"":""s"",""event"":""keydown"",""t"":64958},{""key"":""s"",""event"":""keydown"",""t"":64993},{""key"":""s"",""event"":""keydown"",""t"":65023},{""key"":""s"",""event"":""keydown"",""t"":65058},{""key"":""s"",""event"":""keydown"",""t"":65090},{""key"":""s"",""event"":""keydown"",""t"":65124},{""key"":""s"",""event"":""keydown"",""t"":65157},{""key"":""s"",""event"":""keydown"",""t"":65190},{""key"":""s"",""event"":""keydown"",""t"":65223},{""key"":""s"",""event"":""keydown"",""t"":65257},{""key"":""s"",""event"":""keydown"",""t"":65291},{""key"":""s"",""event"":""keydown"",""t"":65322},{""key"":""s"",""event"":""keydown"",""t"":65356},{""key"":""s"",""event"":""keydown"",""t"":65389},{""key"":""s"",""event"":""keydown"",""t"":65424},{""key"":""s"",""event"":""keydown"",""t"":65457},{""key"":""s"",""event"":""keydown"",""t"":65489},{""key"":""s"",""event"":""keydown"",""t"":65524},{""key"":""s"",""event"":""keydown"",""t"":65556},{""key"":""s"",""event"":""keydown"",""t"":65588},{""key"":""s"",""event"":""keydown"",""t"":65621},{""key"":""s"",""event"":""keydown"",""t"":65657},{""key"":""s"",""event"":""keydown"",""t"":65688},{""key"":""s"",""event"":""keydown"",""t"":65721},{""key"":""s"",""event"":""keyup"",""t"":65732},{""key"":""s"",""event"":""keydown"",""t"":66307},{""key"":""s"",""event"":""keyup"",""t"":66454},{""key"":""s"",""event"":""keydown"",""t"":66850},{""key"":""s"",""event"":""keyup"",""t"":66980},{""key"":""d"",""event"":""keydown"",""t"":67104},{""key"":""d"",""event"":""keyup"",""t"":67205},{""key"":"" "",""event"":""keydown"",""t"":67541},{""key"":"" "",""event"":""keyup"",""t"":67676},{""key"":"" "",""event"":""keydown"",""t"":68139},{""key"":"" "",""event"":""keyup"",""t"":68271},{""key"":"" "",""event"":""keydown"",""t"":68660},{""key"":"" "",""event"":""keyup"",""t"":68775},{""key"":"" "",""event"":""keydown"",""t"":69062},{""key"":"" "",""event"":""keyup"",""t"":69171},{""key"":"" "",""event"":""keydown"",""t"":69710},{""key"":"" "",""event"":""keyup"",""t"":69808},{""key"":"" "",""event"":""keydown"",""t"":70406},{""key"":"" "",""event"":""keyup"",""t"":70518},{""key"":"" "",""event"":""keydown"",""t"":70965},{""key"":"" "",""event"":""keyup"",""t"":71078},{""key"":"" "",""event"":""keydown"",""t"":72065},{""key"":"" "",""event"":""keyup"",""t"":72181},{""key"":""a"",""event"":""keydown"",""t"":74799},{""key"":""a"",""event"":""keyup"",""t"":74909},{""key"":"" "",""event"":""keydown"",""t"":76590},{""key"":"" "",""event"":""keyup"",""t"":76717},{""key"":"" "",""event"":""keydown"",""t"":77137},{""key"":"" "",""event"":""keyup"",""t"":77318},{""key"":"" "",""event"":""keydown"",""t"":77676},{""key"":"" "",""event"":""keyup"",""t"":77866},{""key"":"" "",""event"":""keydown"",""t"":78260},{""key"":"" "",""event"":""keyup"",""t"":78426},{""key"":"" "",""event"":""keydown"",""t"":78868},{""key"":"" "",""event"":""keyup"",""t"":78997},{""key"":"" "",""event"":""keydown"",""t"":79465},{""key"":"" "",""event"":""keyup"",""t"":79633},{""key"":"" "",""event"":""keydown"",""t"":80163},{""key"":"" "",""event"":""keyup"",""t"":80338},{""key"":"" "",""event"":""keydown"",""t"":80945},{""key"":"" "",""event"":""keyup"",""t"":81129},{""key"":"" "",""event"":""keydown"",""t"":81698},{""key"":"" "",""event"":""keyup"",""t"":81858},{""key"":"" "",""event"":""keydown"",""t"":82230},{""key"":"" "",""event"":""keyup"",""t"":82437},{""key"":""a"",""event"":""keydown"",""t"":83053},{""key"":""a"",""event"":""keyup"",""t"":83150},{""key"":"" "",""event"":""keydown"",""t"":83600},{""key"":"" "",""event"":""keyup"",""t"":83720},{""key"":"" "",""event"":""keydown"",""t"":84006},{""key"":"" "",""event"":""keyup"",""t"":84164},{""key"":"" "",""event"":""keydown"",""t"":84463},{""key"":"" "",""event"":""keyup"",""t"":84631},{""key"":"" "",""event"":""keydown"",""t"":84955},{""key"":"" "",""event"":""keyup"",""t"":85105},{""key"":"" "",""event"":""keydown"",""t"":85340},{""key"":"" "",""event"":""keyup"",""t"":85437},{""key"":"" "",""event"":""keydown"",""t"":85543},{""key"":"" "",""event"":""keyup"",""t"":85614},{""key"":"" "",""event"":""keydown"",""t"":85699},{""key"":"" "",""event"":""keyup"",""t"":85769},{""key"":""w"",""event"":""keydown"",""t"":85792},{""key"":"" "",""event"":""keydown"",""t"":85835},{""key"":""w"",""event"":""keyup"",""t"":85874},{""key"":"" "",""event"":""keyup"",""t"":85910},{""key"":"" "",""event"":""keydown"",""t"":85979},{""key"":"" "",""event"":""keyup"",""t"":86058},{""key"":"" "",""event"":""keydown"",""t"":86126},{""key"":"" "",""event"":""keyup"",""t"":86202},{""key"":"" "",""event"":""keydown"",""t"":86260},{""key"":""s"",""event"":""keydown"",""t"":86292},{""key"":"" "",""event"":""keyup"",""t"":86336},{""key"":""s"",""event"":""keyup"",""t"":86353},{""key"":"" "",""event"":""keydown"",""t"":86402},{""key"":"" "",""event"":""keyup"",""t"":86472},{""key"":"" "",""event"":""keydown"",""t"":86542},{""key"":"" "",""event"":""keyup"",""t"":86607},{""key"":"" "",""event"":""keydown"",""t"":86677},{""key"":""w"",""event"":""keydown"",""t"":86723},{""key"":"" "",""event"":""keyup"",""t"":86755},{""key"":"" "",""event"":""keydown"",""t"":86817},{""key"":""w"",""event"":""keyup"",""t"":86824},{""key"":"" "",""event"":""keyup"",""t"":86891},{""key"":"" "",""event"":""keydown"",""t"":86957},{""key"":"" "",""event"":""keyup"",""t"":87031},{""key"":"" "",""event"":""keydown"",""t"":87104},{""key"":"" "",""event"":""keyup"",""t"":87182},{""key"":"" "",""event"":""keydown"",""t"":87248},{""key"":"" "",""event"":""keyup"",""t"":87317},{""key"":"" "",""event"":""keydown"",""t"":87383},{""key"":"" "",""event"":""keyup"",""t"":87456},{""key"":"" "",""event"":""keydown"",""t"":87536},{""key"":"" "",""event"":""keyup"",""t"":87598},{""key"":"" "",""event"":""keydown"",""t"":87670},{""key"":"" "",""event"":""keyup"",""t"":87739},{""key"":"" "",""event"":""keydown"",""t"":87811},{""key"":"" "",""event"":""keyup"",""t"":87882},{""key"":"" "",""event"":""keydown"",""t"":87952},{""key"":"" "",""event"":""keyup"",""t"":88030},{""key"":"" "",""event"":""keydown"",""t"":88094},{""key"":"" "",""event"":""keyup"",""t"":88173},{""key"":"" "",""event"":""keydown"",""t"":88241},{""key"":"" "",""event"":""keyup"",""t"":88317},{""key"":"" "",""event"":""keydown"",""t"":88398},{""key"":"" "",""event"":""keyup"",""t"":88455},{""key"":"" "",""event"":""keydown"",""t"":88519},{""key"":"" "",""event"":""keyup"",""t"":88600},{""key"":"" "",""event"":""keydown"",""t"":88669},{""key"":"" "",""event"":""keyup"",""t"":88740},{""key"":"" "",""event"":""keydown"",""t"":88817},{""key"":"" "",""event"":""keyup"",""t"":88885},{""key"":"" "",""event"":""keydown"",""t"":88948},{""key"":"" "",""event"":""keyup"",""t"":89017},{""key"":"" "",""event"":""keydown"",""t"":89097},{""key"":"" "",""event"":""keyup"",""t"":89164},{""key"":"" "",""event"":""keydown"",""t"":89236},{""key"":"" "",""event"":""keyup"",""t"":89290},{""key"":"" "",""event"":""keydown"",""t"":89366},{""key"":"" "",""event"":""keyup"",""t"":89421},{""key"":"" "",""event"":""keydown"",""t"":90456},{""key"":"" "",""event"":""keyup"",""t"":90622},{""key"":"" "",""event"":""keydown"",""t"":91124},{""key"":"" "",""event"":""keyup"",""t"":91291},{""key"":""d"",""event"":""keydown"",""t"":91586},{""key"":""d"",""event"":""keyup"",""t"":91676},{""key"":"" "",""event"":""keydown"",""t"":91722},{""key"":"" "",""event"":""keyup"",""t"":91838},{""key"":"" "",""event"":""keydown"",""t"":92291},{""key"":"" "",""event"":""keyup"",""t"":92427},{""key"":"" "",""event"":""keydown"",""t"":92859},{""key"":"" "",""event"":""keyup"",""t"":93025},{""key"":""a"",""event"":""keydown"",""t"":94067},{""key"":""a"",""event"":""keydown"",""t"":94581},{""key"":""a"",""event"":""keydown"",""t"":94614},{""key"":""a"",""event"":""keydown"",""t"":94646},{""key"":""a"",""event"":""keydown"",""t"":94683},{""key"":""a"",""event"":""keydown"",""t"":94715},{""key"":""a"",""event"":""keydown"",""t"":94748},{""key"":""a"",""event"":""keydown"",""t"":94781},{""key"":""a"",""event"":""keydown"",""t"":94816},{""key"":""a"",""event"":""keydown"",""t"":94848},{""key"":""a"",""event"":""keydown"",""t"":94881},{""key"":""a"",""event"":""keydown"",""t"":94912},{""key"":""a"",""event"":""keydown"",""t"":94946},{""key"":""a"",""event"":""keydown"",""t"":94981},{""key"":""a"",""event"":""keydown"",""t"":95012},{""key"":""a"",""event"":""keydown"",""t"":95047},{""key"":""a"",""event"":""keydown"",""t"":95080},{""key"":""a"",""event"":""keydown"",""t"":95112},{""key"":""a"",""event"":""keydown"",""t"":95148},{""key"":""a"",""event"":""keydown"",""t"":95182},{""key"":""a"",""event"":""keydown"",""t"":95215},{""key"":""a"",""event"":""keydown"",""t"":95247},{""key"":""a"",""event"":""keydown"",""t"":95282},{""key"":""a"",""event"":""keydown"",""t"":95316},{""key"":""a"",""event"":""keydown"",""t"":95348},{""key"":""a"",""event"":""keydown"",""t"":95382},{""key"":""a"",""event"":""keydown"",""t"":95414},{""key"":""a"",""event"":""keydown"",""t"":95448},{""key"":""a"",""event"":""keydown"",""t"":95487},{""key"":""a"",""event"":""keyup"",""t"":95487},{""key"":""a"",""event"":""keydown"",""t"":96058},{""key"":""a"",""event"":""keyup"",""t"":96181},{""key"":"" "",""event"":""keydown"",""t"":96747},{""key"":"" "",""event"":""keyup"",""t"":96880},{""key"":"" "",""event"":""keydown"",""t"":97271},{""key"":"" "",""event"":""keyup"",""t"":97481},{""key"":""a"",""event"":""keydown"",""t"":97855},{""key"":""a"",""event"":""keyup"",""t"":97934},{""key"":"" "",""event"":""keydown"",""t"":98079},{""key"":"" "",""event"":""keyup"",""t"":98219},{""key"":""a"",""event"":""keydown"",""t"":98584},{""key"":""a"",""event"":""keyup"",""t"":98693},{""key"":"" "",""event"":""keydown"",""t"":98873},{""key"":"" "",""event"":""keyup"",""t"":99051},{""key"":"" "",""event"":""keydown"",""t"":99349},{""key"":"" "",""event"":""keyup"",""t"":99530},{""key"":""a"",""event"":""keydown"",""t"":99792},{""key"":""a"",""event"":""keyup"",""t"":99865},{""key"":"" "",""event"":""keydown"",""t"":99885},{""key"":"" "",""event"":""keyup"",""t"":100021},{""key"":"" "",""event"":""keydown"",""t"":100315},{""key"":"" "",""event"":""keyup"",""t"":100493},{""key"":"" "",""event"":""keydown"",""t"":100878},{""key"":"" "",""event"":""keyup"",""t"":101071},{""key"":""d"",""event"":""keydown"",""t"":101741},{""key"":""s"",""event"":""keydown"",""t"":101876},{""key"":""d"",""event"":""keyup"",""t"":101985},{""key"":""s"",""event"":""keyup"",""t"":102099},{""key"":""a"",""event"":""keydown"",""t"":102266},{""key"":""a"",""event"":""keyup"",""t"":102375},{""key"":"" "",""event"":""keydown"",""t"":102762},{""key"":"" "",""event"":""keyup"",""t"":102898},{""key"":"" "",""event"":""keydown"",""t"":103329},{""key"":"" "",""event"":""keyup"",""t"":103546},{""key"":"" "",""event"":""keydown"",""t"":104116},{""key"":"" "",""event"":""keyup"",""t"":104330},{""key"":""s"",""event"":""keydown"",""t"":104609},{""key"":""s"",""event"":""keyup"",""t"":104756},{""key"":""s"",""event"":""keydown"",""t"":105105},{""key"":""s"",""event"":""keyup"",""t"":105219},{""key"":""s"",""event"":""keydown"",""t"":106506},{""key"":""s"",""event"":""keyup"",""t"":106659},{""key"":""s"",""event"":""keydown"",""t"":106824},{""key"":""s"",""event"":""keyup"",""t"":106918},{""key"":""a"",""event"":""keydown"",""t"":107033},{""key"":""w"",""event"":""keydown"",""t"":107533},{""key"":""w"",""event"":""keyup"",""t"":107703},{""key"":""a"",""event"":""keyup"",""t"":107717},{""key"":""w"",""event"":""keydown"",""t"":108040},{""key"":""w"",""event"":""keyup"",""t"":108381},{""key"":""d"",""event"":""keydown"",""t"":108517},{""key"":""d"",""event"":""keyup"",""t"":108634},{""key"":"" "",""event"":""keydown"",""t"":108993},{""key"":"" "",""event"":""keyup"",""t"":109140},{""key"":"" "",""event"":""keydown"",""t"":109441},{""key"":"" "",""event"":""keyup"",""t"":109580},{""key"":"" "",""event"":""keydown"",""t"":109848},{""key"":"" "",""event"":""keyup"",""t"":110021},{""key"":"" "",""event"":""keydown"",""t"":110162},{""key"":"" "",""event"":""keyup"",""t"":110237},{""key"":""w"",""event"":""keydown"",""t"":110842},{""key"":""w"",""event"":""keyup"",""t"":110948},{""key"":""d"",""event"":""keydown"",""t"":111215},{""key"":""d"",""event"":""keyup"",""t"":111367},{""key"":"" "",""event"":""keydown"",""t"":111740},{""key"":"" "",""event"":""keyup"",""t"":111862},{""key"":"" "",""event"":""keydown"",""t"":112159},{""key"":"" "",""event"":""keyup"",""t"":112352},{""key"":""w"",""event"":""keydown"",""t"":112581},{""key"":""w"",""event"":""keyup"",""t"":112704},{""key"":"" "",""event"":""keydown"",""t"":113007},{""key"":"" "",""event"":""keyup"",""t"":113170},{""key"":"" "",""event"":""keydown"",""t"":113288},{""key"":"" "",""event"":""keyup"",""t"":113424},{""key"":"" "",""event"":""keydown"",""t"":113643},{""key"":"" "",""event"":""keyup"",""t"":113850},{""key"":""w"",""event"":""keydown"",""t"":114152},{""key"":""w"",""event"":""keyup"",""t"":114273},{""key"":"" "",""event"":""keydown"",""t"":114585},{""key"":"" "",""event"":""keyup"",""t"":114765},{""key"":""s"",""event"":""keydown"",""t"":115531},{""key"":""s"",""event"":""keyup"",""t"":115664},{""key"":"" "",""event"":""keydown"",""t"":116280},{""key"":"" "",""event"":""keyup"",""t"":116464},{""key"":"" "",""event"":""keydown"",""t"":116874},{""key"":"" "",""event"":""keyup"",""t"":117118},{""key"":"" "",""event"":""keydown"",""t"":117340},{""key"":"" "",""event"":""keyup"",""t"":117567},{""key"":"" "",""event"":""keydown"",""t"":117790},{""key"":"" "",""event"":""keyup"",""t"":118040},{""key"":""a"",""event"":""keydown"",""t"":118252},{""key"":""a"",""event"":""keyup"",""t"":118347},{""key"":"" "",""event"":""keydown"",""t"":118443},{""key"":"" "",""event"":""keyup"",""t"":118588},{""key"":"" "",""event"":""keydown"",""t"":119041},{""key"":"" "",""event"":""keyup"",""t"":119263},{""key"":"" "",""event"":""keydown"",""t"":119544},{""key"":"" "",""event"":""keyup"",""t"":119794},{""key"":"" "",""event"":""keydown"",""t"":120924},{""key"":"" "",""event"":""keyup"",""t"":121274},{""key"":"" "",""event"":""keydown"",""t"":121443},{""key"":"" "",""event"":""keyup"",""t"":121621},{""key"":"" "",""event"":""keydown"",""t"":121915},{""key"":"" "",""event"":""keyup"",""t"":122083},{""key"":"" "",""event"":""keydown"",""t"":122641},{""key"":"" "",""event"":""keyup"",""t"":123005},{""key"":"" "",""event"":""keydown"",""t"":123481},{""key"":"" "",""event"":""keyup"",""t"":123714},{""key"":""d"",""event"":""keydown"",""t"":127042},{""key"":""d"",""event"":""keyup"",""t"":127199},{""key"":""d"",""event"":""keydown"",""t"":127389},{""key"":""d"",""event"":""keyup"",""t"":127572},{""key"":""Enter"",""event"":""keydown"",""t"":133969}]","[]"
"883325","","{""creativity-rating"":4,""creativity-free-response"":""The beat based matching aspect was very creative although also somewhat challenging. I like the integration of damaging aspects from the colored orbs and that they differ. I do think it couldve been slightly more creative by adding some sort of special ability to the player orb."",""originality-rating"":3,""originality-free-response"":""The mechanics were quite basic, as was the level design. I did like the different effects and movements the colored orbs made. I was originally surprised by them being able to deal damage to me, but then surprised once again by not \""losing\"" when I got hit too much, just being stunned for a short while."",""effectiveness-rating"":4,""effectiveness-free-response"":""The controls worked well, and the concept was quite appealing. The entertainment value is mediocre due to the relative simplicity of the concept. I was somewhat frustrated by the method of dealing damage, though this might be down moreso to my own ability."",""authenticity-rating"":4,""attention-check"":3,""intentionality-rating"":3,""authenticity-intentionality-free-response"":""It feels like a simple, but well executed game. Though simple, the controls work well and the movement is smooth and polished. For the same reasons it feels like there was personal effort put in to make it function as well as it does. ""}","evaluation-claude-4-decibel","survey","4","1043085","0.0-4.0","6992fdf8bd688e6c9f7627b8","6987c292780adf01bb926159","69a5f4a0ca5ef1ac58f695c3","","","","","","",""
"45544","","{""concept-creativity-rating"":5,""concept-implementation-rating"":4,""question1"":null}","concept-claude-4-decibel","survey","5","1088643","0.0-5.0","6992fdf8bd688e6c9f7627b8","6987c292780adf01bb926159","69a5f4a0ca5ef1ac58f695c3","","","","","","",""
"3302","You have completed your evaluation of the first video game.<br><br>Press any key to proceed to the second game."," ","pre-game-two-message","html-keyboard-response","6","1091948","0.0-6.0","6992fdf8bd688e6c9f7627b8","6987c292780adf01bb926159","69a5f4a0ca5ef1ac58f695c3","","","","","","",""
"62901","","","game-gemini-1-static","plugin-game-iframe","7","1154882","0.0-7.0","6992fdf8bd688e6c9f7627b8","6987c292780adf01bb926159","69a5f4a0ca5ef1ac58f695c3","game-complete","completed","{""stage"":""completed"",""detail"":{""signalHealth"":12,""playerDistance"":0,""p1ToGoal"":0,""p2ToGoal"":0,""avgToGoal"":0}}","{""result"":""win"",""signalHealth"":12.208150003388464}","null","[{""key"":"" "",""event"":""keyup"",""t"":64},{""key"":""ArrowLeft"",""event"":""keydown"",""t"":5686},{""key"":""ArrowRight"",""event"":""keydown"",""t"":5984},{""key"":""ArrowLeft"",""event"":""keyup"",""t"":6084},{""key"":""ArrowRight"",""event"":""keyup"",""t"":6448},{""key"":""ArrowLeft"",""event"":""keydown"",""t"":6638},{""key"":""ArrowRight"",""event"":""keydown"",""t"":6670},{""key"":""ArrowLeft"",""event"":""keyup"",""t"":6759},{""key"":""ArrowRight"",""event"":""keydown"",""t"":7189},{""key"":""ArrowRight"",""event"":""keydown"",""t"":7224},{""key"":""ArrowRight"",""event"":""keydown"",""t"":7255},{""key"":""ArrowLeft"",""event"":""keydown"",""t"":7287},{""key"":""ArrowRight"",""event"":""keyup"",""t"":7301},{""key"":""ArrowLeft"",""event"":""keydown"",""t"":7806},{""key"":""ArrowLeft"",""event"":""keydown"",""t"":7838},{""key"":""ArrowLeft"",""event"":""keydown"",""t"":7873},{""key"":""ArrowLeft"",""event"":""keydown"",""t"":7904},{""key"":""ArrowLeft"",""event"":""keydown"",""t"":7938},{""key"":""ArrowLeft"",""event"":""keydown"",""t"":7970},{""key"":""ArrowLeft"",""event"":""keydown"",""t"":8006},{""key"":""ArrowLeft"",""event"":""keydown"",""t"":8037},{""key"":""ArrowLeft"",""event"":""keydown"",""t"":8071},{""key"":""ArrowLeft"",""event"":""keydown"",""t"":8106},{""key"":""ArrowLeft"",""event"":""keydown"",""t"":8137},{""key"":""ArrowLeft"",""event"":""keydown"",""t"":8171},{""key"":""ArrowLeft"",""event"":""keydown"",""t"":8204},{""key"":""ArrowLeft"",""event"":""keydown"",""t"":8238},{""key"":""ArrowLeft"",""event"":""keydown"",""t"":8269},{""key"":""ArrowLeft"",""event"":""keydown"",""t"":8305},{""key"":""ArrowLeft"",""event"":""keydown"",""t"":8338},{""key"":""ArrowLeft"",""event"":""keydown"",""t"":8371},{""key"":""ArrowLeft"",""event"":""keydown"",""t"":8404},{""key"":""ArrowLeft"",""event"":""keydown"",""t"":8436},{""key"":""ArrowLeft"",""event"":""keydown"",""t"":8472},{""key"":""ArrowLeft"",""event"":""keydown"",""t"":8503},{""key"":""ArrowLeft"",""event"":""keydown"",""t"":8536},{""key"":""ArrowLeft"",""event"":""keydown"",""t"":8569},{""key"":""ArrowLeft"",""event"":""keydown"",""t"":8604},{""key"":""ArrowLeft"",""event"":""keyup"",""t"":8608},{""key"":""ArrowRight"",""event"":""keydown"",""t"":10187},{""key"":""ArrowUp"",""event"":""keydown"",""t"":10418},{""key"":""ArrowRight"",""event"":""keyup"",""t"":10501},{""key"":""ArrowUp"",""event"":""keyup"",""t"":10646},{""key"":""d"",""event"":""keydown"",""t"":14218},{""key"":""d"",""event"":""keydown"",""t"":14738},{""key"":""d"",""event"":""keyup"",""t"":14768},{""key"":""ArrowRight"",""event"":""keydown"",""t"":15810},{""key"":""ArrowRight"",""event"":""keyup"",""t"":16074},{""key"":""ArrowRight"",""event"":""keydown"",""t"":16226},{""key"":""ArrowRight"",""event"":""keyup"",""t"":16356},{""key"":""ArrowLeft"",""event"":""keydown"",""t"":16696},{""key"":""ArrowLeft"",""event"":""keyup"",""t"":16907},{""key"":""ArrowUp"",""event"":""keydown"",""t"":17198},{""key"":""ArrowRight"",""event"":""keydown"",""t"":17322},{""key"":""ArrowUp"",""event"":""keyup"",""t"":17781},{""key"":""ArrowRight"",""event"":""keyup"",""t"":17790},{""key"":""ArrowLeft"",""event"":""keydown"",""t"":18039},{""key"":""ArrowLeft"",""event"":""keyup"",""t"":18315},{""key"":""ArrowLeft"",""event"":""keydown"",""t"":18535},{""key"":""ArrowLeft"",""event"":""keyup"",""t"":18647},{""key"":""a"",""event"":""keydown"",""t"":19008},{""key"":""a"",""event"":""keyup"",""t"":19187},{""key"":""d"",""event"":""keydown"",""t"":19578},{""key"":""d"",""event"":""keyup"",""t"":19655},{""key"":""w"",""event"":""keydown"",""t"":19857},{""key"":""a"",""event"":""keydown"",""t"":20026},{""key"":""w"",""event"":""keyup"",""t"":20331},{""key"":""a"",""event"":""keyup"",""t"":20410},{""key"":""d"",""event"":""keydown"",""t"":21400},{""key"":""ArrowLeft"",""event"":""keydown"",""t"":21403},{""key"":""ArrowUp"",""event"":""keydown"",""t"":21406},{""key"":""w"",""event"":""keydown"",""t"":21422},{""key"":""w"",""event"":""keyup"",""t"":21911},{""key"":""ArrowUp"",""event"":""keyup"",""t"":21923},{""key"":""ArrowLeft"",""event"":""keyup"",""t"":21926},{""key"":""d"",""event"":""keyup"",""t"":21932},{""key"":""d"",""event"":""keydown"",""t"":23096},{""key"":""ArrowLeft"",""event"":""keydown"",""t"":23110},{""key"":""w"",""event"":""keydown"",""t"":23118},{""key"":""ArrowUp"",""event"":""keydown"",""t"":23123},{""key"":""w"",""event"":""keyup"",""t"":23421},{""key"":""d"",""event"":""keyup"",""t"":23436},{""key"":""ArrowUp"",""event"":""keyup"",""t"":23473},{""key"":""ArrowLeft"",""event"":""keyup"",""t"":23490},{""key"":""ArrowLeft"",""event"":""keydown"",""t"":24369},{""key"":""ArrowLeft"",""event"":""keyup"",""t"":24552},{""key"":""ArrowRight"",""event"":""keydown"",""t"":25202},{""key"":""ArrowUp"",""event"":""keydown"",""t"":25206},{""key"":""ArrowUp"",""event"":""keyup"",""t"":25431},{""key"":""ArrowRight"",""event"":""keyup"",""t"":25463},{""key"":""d"",""event"":""keydown"",""t"":26514},{""key"":""d"",""event"":""keyup"",""t"":26607},{""key"":""d"",""event"":""keydown"",""t"":26979},{""key"":""d"",""event"":""keyup"",""t"":27125},{""key"":""d"",""event"":""keydown"",""t"":27322},{""key"":""d"",""event"":""keyup"",""t"":27417},{""key"":""ArrowRight"",""event"":""keydown"",""t"":27932},{""key"":""ArrowRight"",""event"":""keyup"",""t"":28026},{""key"":""ArrowRight"",""event"":""keydown"",""t"":28236},{""key"":""ArrowRight"",""event"":""keyup"",""t"":28330},{""key"":""w"",""event"":""keydown"",""t"":28935},{""key"":""ArrowUp"",""event"":""keydown"",""t"":28938},{""key"":""w"",""event"":""keyup"",""t"":29410},{""key"":""ArrowUp"",""event"":""keyup"",""t"":29451},{""key"":""ArrowRight"",""event"":""keydown"",""t"":30607},{""key"":""ArrowRight"",""event"":""keyup"",""t"":30669},{""key"":""ArrowUp"",""event"":""keydown"",""t"":31225},{""key"":""w"",""event"":""keydown"",""t"":31235},{""key"":""w"",""event"":""keyup"",""t"":31492},{""key"":""ArrowUp"",""event"":""keyup"",""t"":31500},{""key"":""w"",""event"":""keydown"",""t"":33472},{""key"":""a"",""event"":""keydown"",""t"":33647},{""key"":""w"",""event"":""keyup"",""t"":33831},{""key"":""a"",""event"":""keyup"",""t"":33835},{""key"":""d"",""event"":""keydown"",""t"":34521},{""key"":""d"",""event"":""keyup"",""t"":34602},{""key"":""d"",""event"":""keydown"",""t"":35362},{""key"":""d"",""event"":""keyup"",""t"":35474},{""key"":""d"",""event"":""keydown"",""t"":35705},{""key"":""d"",""event"":""keyup"",""t"":35847},{""key"":""w"",""event"":""keydown"",""t"":40426},{""key"":""w"",""event"":""keydown"",""t"":40946},{""key"":""w"",""event"":""keydown"",""t"":40978},{""key"":""w"",""event"":""keydown"",""t"":41011},{""key"":""w"",""event"":""keydown"",""t"":41048},{""key"":""w"",""event"":""keydown"",""t"":41086},{""key"":""w"",""event"":""keydown"",""t"":41111},{""key"":""w"",""event"":""keydown"",""t"":41144},{""key"":""w"",""event"":""keydown"",""t"":41179},{""key"":""w"",""event"":""keydown"",""t"":41211},{""key"":""w"",""event"":""keydown"",""t"":41244},{""key"":""w"",""event"":""keydown"",""t"":41278},{""key"":""w"",""event"":""keydown"",""t"":41311},{""key"":""w"",""event"":""keydown"",""t"":41346},{""key"":""w"",""event"":""keydown"",""t"":41377},{""key"":""w"",""event"":""keydown"",""t"":41412},{""key"":""w"",""event"":""keydown"",""t"":41444},{""key"":""w"",""event"":""keydown"",""t"":41477},{""key"":""w"",""event"":""keydown"",""t"":41510},{""key"":""w"",""event"":""keydown"",""t"":41544},{""key"":""w"",""event"":""keydown"",""t"":41578},{""key"":""w"",""event"":""keydown"",""t"":41610},{""key"":""w"",""event"":""keydown"",""t"":41646},{""key"":""w"",""event"":""keydown"",""t"":41677},{""key"":""w"",""event"":""keydown"",""t"":41710},{""key"":""w"",""event"":""keydown"",""t"":41744},{""key"":""w"",""event"":""keydown"",""t"":41777},{""key"":""w"",""event"":""keydown"",""t"":41810},{""key"":""w"",""event"":""keydown"",""t"":41844},{""key"":""w"",""event"":""keydown"",""t"":41879},{""key"":""w"",""event"":""keydown"",""t"":41910},{""key"":""w"",""event"":""keydown"",""t"":41943},{""key"":""w"",""event"":""keydown"",""t"":41976},{""key"":""w"",""event"":""keyup"",""t"":41991},{""key"":""w"",""event"":""keydown"",""t"":43607},{""key"":""a"",""event"":""keydown"",""t"":43612},{""key"":""d"",""event"":""keydown"",""t"":44050},{""key"":""a"",""event"":""keyup"",""t"":44060},{""key"":""ArrowRight"",""event"":""keydown"",""t"":44118},{""key"":""ArrowUp"",""event"":""keydown"",""t"":44123},{""key"":""ArrowUp"",""event"":""keyup"",""t"":44609},{""key"":""ArrowRight"",""event"":""keyup"",""t"":44620},{""key"":""w"",""event"":""keyup"",""t"":44735},{""key"":""d"",""event"":""keyup"",""t"":44831},{""key"":""d"",""event"":""keydown"",""t"":45535},{""key"":""d"",""event"":""keyup"",""t"":45897},{""key"":""a"",""event"":""keydown"",""t"":46512},{""key"":""a"",""event"":""keyup"",""t"":46656},{""key"":""d"",""event"":""keydown"",""t"":47137},{""key"":""d"",""event"":""keyup"",""t"":47347},{""key"":""ArrowLeft"",""event"":""keydown"",""t"":48597},{""key"":""ArrowLeft"",""event"":""keyup"",""t"":48794},{""key"":""w"",""event"":""keydown"",""t"":49705},{""key"":""a"",""event"":""keydown"",""t"":49811},{""key"":""w"",""event"":""keyup"",""t"":49953},{""key"":""a"",""event"":""keyup"",""t"":49995},{""key"":""a"",""event"":""keydown"",""t"":50556},{""key"":""a"",""event"":""keyup"",""t"":50621},{""key"":""a"",""event"":""keydown"",""t"":51160},{""key"":""w"",""event"":""keydown"",""t"":51184},{""key"":""w"",""event"":""keydown"",""t"":51704},{""key"":""w"",""event"":""keydown"",""t"":51738},{""key"":""w"",""event"":""keyup"",""t"":51768},{""key"":""a"",""event"":""keyup"",""t"":51804},{""key"":""ArrowRight"",""event"":""keydown"",""t"":53733},{""key"":""ArrowRight"",""event"":""keyup"",""t"":53845},{""key"":""ArrowRight"",""event"":""keydown"",""t"":54228},{""key"":""ArrowRight"",""event"":""keyup"",""t"":54382},{""key"":""ArrowUp"",""event"":""keydown"",""t"":54694},{""key"":""ArrowLeft"",""event"":""keydown"",""t"":54730},{""key"":""ArrowLeft"",""event"":""keyup"",""t"":54993},{""key"":""ArrowUp"",""event"":""keyup"",""t"":55001},{""key"":""ArrowRight"",""event"":""keydown"",""t"":55447},{""key"":""ArrowRight"",""event"":""keyup"",""t"":55620},{""key"":""ArrowLeft"",""event"":""keydown"",""t"":57211},{""key"":""ArrowLeft"",""event"":""keyup"",""t"":57305},{""key"":""ArrowUp"",""event"":""keydown"",""t"":58245},{""key"":""ArrowLeft"",""event"":""keydown"",""t"":58246},{""key"":""w"",""event"":""keydown"",""t"":58256},{""key"":""d"",""event"":""keydown"",""t"":58261},{""key"":""w"",""event"":""keyup"",""t"":58651},{""key"":""d"",""event"":""keyup"",""t"":58653},{""key"":""ArrowUp"",""event"":""keyup"",""t"":58658},{""key"":""ArrowLeft"",""event"":""keyup"",""t"":58663},{""key"":""Enter"",""event"":""keydown"",""t"":62883}]","[]"
"650689","","{""creativity-rating"":3,""creativity-free-response"":""The \""get to a goal together\"" concept is not very original. Being tethered to eachother does add some originality, especially combined with a hp bar."",""originality-rating"":3,""originality-free-response"":""The mechanics are rather basic, the controls will be familiar to most people, and the \""rules\"" of the game are simple to figure out. The tether dealing damage when too close was original and surprising, as I was expecting it to do the opposite and deal damage when they were to far apart."",""effectiveness-rating"":2,""effectiveness-free-response"":""The controls worked fine. Apart from that there was little explanation to the effect of the tether and the relevant consequences. The goal seemed to have a weird hitbox as it seemed to take multiple tries to hit it. The level design is quite bland and doesn't give the player anything to do or look at apart from the goal of the game. Alltogether, feels like an old flash game."",""authenticity-rating"":2,""attention-check"":3,""intentionality-rating"":2,""authenticity-intentionality-free-response"":""It was a mildly interesting idea, mostly because of the tether. Other than that there seemed to be little originality in the concept or level design. This also reflects to me that there was little personal effort put into this game as the level looks boring and the gameplay is quite bland.""}","evaluation-gemini-1-static","survey","8","1805544","0.0-8.0","6992fdf8bd688e6c9f7627b8","6987c292780adf01bb926159","69a5f4a0ca5ef1ac58f695c3","","","","","","",""
"19257","","{""concept-creativity-rating"":3,""concept-implementation-rating"":2,""question1"":null}","concept-gemini-1-static","survey","9","1824826","0.0-9.0","6992fdf8bd688e6c9f7627b8","6987c292780adf01bb926159","69a5f4a0ca5ef1ac58f695c3","","","","","","",""
"1586","You have completed your evaluation of the second video game.<br><br>Press any key to proceed to the final game."," ","pre-game-three-message","html-keyboard-response","10","1826413","0.0-10.0","6992fdf8bd688e6c9f7627b8","6987c292780adf01bb926159","69a5f4a0ca5ef1ac58f695c3","","","","","","",""
"66445","","","game-gemini-6-redact","plugin-game-iframe","11","1892888","0.0-11.0","6992fdf8bd688e6c9f7627b8","6987c292780adf01bb926159","69a5f4a0ca5ef1ac58f695c3","game-complete","mobile:barrier-cleared","{""stage"":""mobile:barrier-cleared"",""detail"":{""playerSpeed"":160,""mobilityUnlocked"":true,""fragileWallAlive"":false,""playerX"":734.6666666666639,""playerY"":547.7766666666666}}","{""result"":""win""}","null","[{""key"":"" "",""event"":""keyup"",""t"":92},{""key"":""ArrowRight"",""event"":""keydown"",""t"":7210},{""key"":""ArrowRight"",""event"":""keyup"",""t"":7464},{""key"":""ArrowRight"",""event"":""keydown"",""t"":7640},{""key"":""ArrowRight"",""event"":""keydown"",""t"":8159},{""key"":""ArrowRight"",""event"":""keydown"",""t"":8194},{""key"":""ArrowRight"",""event"":""keydown"",""t"":8225},{""key"":""ArrowRight"",""event"":""keydown"",""t"":8260},{""key"":""ArrowRight"",""event"":""keydown"",""t"":8294},{""key"":""ArrowRight"",""event"":""keydown"",""t"":8326},{""key"":""ArrowRight"",""event"":""keydown"",""t"":8360},{""key"":""ArrowRight"",""event"":""keydown"",""t"":8392},{""key"":""ArrowRight"",""event"":""keydown"",""t"":8428},{""key"":""ArrowRight"",""event"":""keydown"",""t"":8459},{""key"":""ArrowRight"",""event"":""keydown"",""t"":8492},{""key"":""ArrowRight"",""event"":""keydown"",""t"":8527},{""key"":""ArrowRight"",""event"":""keydown"",""t"":8559},{""key"":""ArrowRight"",""event"":""keydown"",""t"":8594},{""key"":""ArrowRight"",""event"":""keydown"",""t"":8624},{""key"":""ArrowRight"",""event"":""keydown"",""t"":8661},{""key"":""ArrowRight"",""event"":""keydown"",""t"":8692},{""key"":""ArrowRight"",""event"":""keydown"",""t"":8724},{""key"":""ArrowRight"",""event"":""keydown"",""t"":8760},{""key"":""ArrowRight"",""event"":""keydown"",""t"":8792},{""key"":""ArrowRight"",""event"":""keydown"",""t"":8825},{""key"":""ArrowRight"",""event"":""keydown"",""t"":8876},{""key"":""ArrowRight"",""event"":""keydown"",""t"":8893},{""key"":""ArrowRight"",""event"":""keydown"",""t"":8923},{""key"":""ArrowRight"",""event"":""keydown"",""t"":8958},{""key"":""ArrowRight"",""event"":""keydown"",""t"":8990},{""key"":""ArrowRight"",""event"":""keydown"",""t"":9027},{""key"":""ArrowRight"",""event"":""keydown"",""t"":9059},{""key"":""ArrowRight"",""event"":""keydown"",""t"":9091},{""key"":""ArrowRight"",""event"":""keydown"",""t"":9127},{""key"":""ArrowRight"",""event"":""keydown"",""t"":9159},{""key"":""ArrowRight"",""event"":""keydown"",""t"":9190},{""key"":""ArrowRight"",""event"":""keydown"",""t"":9223},{""key"":""ArrowRight"",""event"":""keydown"",""t"":9259},{""key"":""ArrowRight"",""event"":""keydown"",""t"":9291},{""key"":""ArrowRight"",""event"":""keydown"",""t"":9324},{""key"":"" "",""event"":""keydown"",""t"":9332},{""key"":"" "",""event"":""keyup"",""t"":9588},{""key"":""ArrowRight"",""event"":""keyup"",""t"":10970},{""key"":""ArrowLeft"",""event"":""keydown"",""t"":11073},{""key"":""ArrowLeft"",""event"":""keydown"",""t"":11595},{""key"":""ArrowLeft"",""event"":""keydown"",""t"":11624},{""key"":""ArrowLeft"",""event"":""keydown"",""t"":11657},{""key"":""ArrowLeft"",""event"":""keydown"",""t"":11693},{""key"":""ArrowLeft"",""event"":""keydown"",""t"":11725},{""key"":""ArrowLeft"",""event"":""keydown"",""t"":11757},{""key"":""ArrowLeft"",""event"":""keydown"",""t"":11794},{""key"":""ArrowLeft"",""event"":""keydown"",""t"":11824},{""key"":""ArrowLeft"",""event"":""keyup"",""t"":11832},{""key"":"" "",""event"":""keydown"",""t"":16870},{""key"":"" "",""event"":""keyup"",""t"":17148},{""key"":""ArrowUp"",""event"":""keydown"",""t"":27702},{""key"":""ArrowUp"",""event"":""keyup"",""t"":27895},{""key"":""ArrowUp"",""event"":""keydown"",""t"":29206},{""key"":""ArrowRight"",""event"":""keydown"",""t"":29335},{""key"":""ArrowUp"",""event"":""keyup"",""t"":29735},{""key"":""ArrowRight"",""event"":""keyup"",""t"":29755},{""key"":""ArrowRight"",""event"":""keydown"",""t"":29927},{""key"":""ArrowRight"",""event"":""keyup"",""t"":30240},{""key"":""ArrowRight"",""event"":""keydown"",""t"":31160},{""key"":""ArrowRight"",""event"":""keyup"",""t"":31267},{""key"":""ArrowUp"",""event"":""keydown"",""t"":32939},{""key"":""ArrowUp"",""event"":""keyup"",""t"":33311},{""key"":""ArrowUp"",""event"":""keydown"",""t"":34816},{""key"":""ArrowUp"",""event"":""keyup"",""t"":34922},{""key"":""ArrowUp"",""event"":""keydown"",""t"":35968},{""key"":""ArrowUp"",""event"":""keyup"",""t"":36105},{""key"":""ArrowRight"",""event"":""keydown"",""t"":38495},{""key"":""ArrowLeft"",""event"":""keydown"",""t"":38975},{""key"":"" "",""event"":""keydown"",""t"":39076},{""key"":""ArrowRight"",""event"":""keyup"",""t"":39235},{""key"":"" "",""event"":""keyup"",""t"":39365},{""key"":""ArrowLeft"",""event"":""keyup"",""t"":39549},{""key"":""ArrowUp"",""event"":""keydown"",""t"":39623},{""key"":""ArrowRight"",""event"":""keydown"",""t"":39641},{""key"":""ArrowUp"",""event"":""keyup"",""t"":39772},{""key"":""ArrowRight"",""event"":""keydown"",""t"":40158},{""key"":""ArrowRight"",""event"":""keydown"",""t"":40193},{""key"":""ArrowRight"",""event"":""keydown"",""t"":40224},{""key"":""ArrowRight"",""event"":""keydown"",""t"":40257},{""key"":""ArrowRight"",""event"":""keydown"",""t"":40290},{""key"":""ArrowRight"",""event"":""keydown"",""t"":40326},{""key"":""ArrowRight"",""event"":""keydown"",""t"":40358},{""key"":""ArrowRight"",""event"":""keydown"",""t"":40391},{""key"":""ArrowRight"",""event"":""keydown"",""t"":40426},{""key"":""ArrowRight"",""event"":""keydown"",""t"":40458},{""key"":""ArrowRight"",""event"":""keydown"",""t"":40490},{""key"":""ArrowRight"",""event"":""keydown"",""t"":40523},{""key"":""ArrowRight"",""event"":""keydown"",""t"":40560},{""key"":""ArrowRight"",""event"":""keydown"",""t"":40591},{""key"":""ArrowRight"",""event"":""keydown"",""t"":40623},{""key"":""ArrowRight"",""event"":""keydown"",""t"":40660},{""key"":""ArrowRight"",""event"":""keydown"",""t"":40691},{""key"":""ArrowUp"",""event"":""keydown"",""t"":40694},{""key"":""ArrowRight"",""event"":""keyup"",""t"":40721},{""key"":""ArrowLeft"",""event"":""keydown"",""t"":40782},{""key"":""ArrowUp"",""event"":""keyup"",""t"":40944},{""key"":""ArrowUp"",""event"":""keydown"",""t"":41231},{""key"":""ArrowLeft"",""event"":""keyup"",""t"":41241},{""key"":""ArrowUp"",""event"":""keyup"",""t"":41476},{""key"":""ArrowLeft"",""event"":""keydown"",""t"":41607},{""key"":""ArrowLeft"",""event"":""keyup"",""t"":41789},{""key"":""ArrowUp"",""event"":""keydown"",""t"":41978},{""key"":""ArrowUp"",""event"":""keyup"",""t"":42110},{""key"":""ArrowRight"",""event"":""keydown"",""t"":42323},{""key"":""ArrowRight"",""event"":""keyup"",""t"":42641},{""key"":""ArrowRight"",""event"":""keydown"",""t"":43097},{""key"":""ArrowRight"",""event"":""keyup"",""t"":43298},{""key"":""ArrowRight"",""event"":""keydown"",""t"":43512},{""key"":""ArrowRight"",""event"":""keyup"",""t"":43616},{""key"":""ArrowRight"",""event"":""keydown"",""t"":43756},{""key"":""ArrowRight"",""event"":""keyup"",""t"":43865},{""key"":"" "",""event"":""keydown"",""t"":44448},{""key"":"" "",""event"":""keydown"",""t"":44968},{""key"":"" "",""event"":""keydown"",""t"":45000},{""key"":"" "",""event"":""keydown"",""t"":45033},{""key"":"" "",""event"":""keydown"",""t"":45065},{""key"":"" "",""event"":""keydown"",""t"":45100},{""key"":"" "",""event"":""keydown"",""t"":45132},{""key"":"" "",""event"":""keydown"",""t"":45165},{""key"":"" "",""event"":""keydown"",""t"":45201},{""key"":"" "",""event"":""keydown"",""t"":45232},{""key"":"" "",""event"":""keydown"",""t"":45265},{""key"":"" "",""event"":""keydown"",""t"":45298},{""key"":"" "",""event"":""keydown"",""t"":45333},{""key"":"" "",""event"":""keydown"",""t"":45364},{""key"":"" "",""event"":""keydown"",""t"":45399},{""key"":"" "",""event"":""keydown"",""t"":45431},{""key"":"" "",""event"":""keydown"",""t"":45464},{""key"":"" "",""event"":""keydown"",""t"":45499},{""key"":"" "",""event"":""keydown"",""t"":45532},{""key"":"" "",""event"":""keydown"",""t"":45566},{""key"":"" "",""event"":""keydown"",""t"":45598},{""key"":"" "",""event"":""keydown"",""t"":45631},{""key"":"" "",""event"":""keydown"",""t"":45664},{""key"":"" "",""event"":""keydown"",""t"":45698},{""key"":"" "",""event"":""keydown"",""t"":45732},{""key"":"" "",""event"":""keydown"",""t"":45764},{""key"":"" "",""event"":""keydown"",""t"":45800},{""key"":"" "",""event"":""keydown"",""t"":45832},{""key"":"" "",""event"":""keydown"",""t"":45865},{""key"":"" "",""event"":""keydown"",""t"":45898},{""key"":"" "",""event"":""keydown"",""t"":45932},{""key"":"" "",""event"":""keydown"",""t"":45964},{""key"":"" "",""event"":""keydown"",""t"":45998},{""key"":"" "",""event"":""keydown"",""t"":46033},{""key"":"" "",""event"":""keydown"",""t"":46064},{""key"":"" "",""event"":""keydown"",""t"":46097},{""key"":"" "",""event"":""keydown"",""t"":46132},{""key"":"" "",""event"":""keydown"",""t"":46164},{""key"":"" "",""event"":""keydown"",""t"":46198},{""key"":"" "",""event"":""keydown"",""t"":46230},{""key"":"" "",""event"":""keydown"",""t"":46266},{""key"":"" "",""event"":""keydown"",""t"":46297},{""key"":"" "",""event"":""keydown"",""t"":46331},{""key"":"" "",""event"":""keydown"",""t"":46364},{""key"":"" "",""event"":""keyup"",""t"":46391},{""key"":""ArrowLeft"",""event"":""keydown"",""t"":47000},{""key"":""ArrowLeft"",""event"":""keyup"",""t"":47214},{""key"":""ArrowRight"",""event"":""keydown"",""t"":55069},{""key"":""ArrowRight"",""event"":""keydown"",""t"":55589},{""key"":""ArrowRight"",""event"":""keydown"",""t"":55621},{""key"":""ArrowRight"",""event"":""keydown"",""t"":55657},{""key"":""ArrowRight"",""event"":""keydown"",""t"":55688},{""key"":""ArrowRight"",""event"":""keydown"",""t"":55722},{""key"":""ArrowRight"",""event"":""keydown"",""t"":55753},{""key"":""ArrowRight"",""event"":""keydown"",""t"":55789},{""key"":""ArrowRight"",""event"":""keydown"",""t"":55820},{""key"":""ArrowRight"",""event"":""keydown"",""t"":55854},{""key"":""ArrowRight"",""event"":""keydown"",""t"":55889},{""key"":""ArrowRight"",""event"":""keydown"",""t"":55921},{""key"":""ArrowRight"",""event"":""keydown"",""t"":55954},{""key"":""ArrowRight"",""event"":""keyup"",""t"":55963},{""key"":""ArrowLeft"",""event"":""keydown"",""t"":56062},{""key"":""ArrowLeft"",""event"":""keydown"",""t"":56582},{""key"":""ArrowLeft"",""event"":""keydown"",""t"":56615},{""key"":""ArrowLeft"",""event"":""keydown"",""t"":56650},{""key"":""ArrowLeft"",""event"":""keydown"",""t"":56681},{""key"":""ArrowLeft"",""event"":""keydown"",""t"":56714},{""key"":""ArrowLeft"",""event"":""keydown"",""t"":56748},{""key"":""ArrowLeft"",""event"":""keydown"",""t"":56782},{""key"":""ArrowLeft"",""event"":""keyup"",""t"":56815},{""key"":""ArrowUp"",""event"":""keydown"",""t"":56822},{""key"":"" "",""event"":""keydown"",""t"":57076},{""key"":"" "",""event"":""keydown"",""t"":57595},{""key"":"" "",""event"":""keydown"",""t"":57629},{""key"":"" "",""event"":""keydown"",""t"":57662},{""key"":"" "",""event"":""keydown"",""t"":57694},{""key"":"" "",""event"":""keydown"",""t"":57729},{""key"":""ArrowLeft"",""event"":""keydown"",""t"":57746},{""key"":""ArrowUp"",""event"":""keyup"",""t"":57776},{""key"":""ArrowLeft"",""event"":""keyup"",""t"":57857},{""key"":""ArrowRight"",""event"":""keydown"",""t"":57879},{""key"":""ArrowRight"",""event"":""keydown"",""t"":58394},{""key"":""ArrowRight"",""event"":""keydown"",""t"":58428},{""key"":""ArrowRight"",""event"":""keydown"",""t"":58461},{""key"":""ArrowRight"",""event"":""keydown"",""t"":58495},{""key"":""ArrowRight"",""event"":""keydown"",""t"":58529},{""key"":""ArrowRight"",""event"":""keydown"",""t"":58561},{""key"":""ArrowRight"",""event"":""keydown"",""t"":58597},{""key"":""ArrowRight"",""event"":""keydown"",""t"":58628},{""key"":""ArrowRight"",""event"":""keydown"",""t"":58661},{""key"":""ArrowRight"",""event"":""keydown"",""t"":58694},{""key"":""ArrowRight"",""event"":""keydown"",""t"":58731},{""key"":""ArrowRight"",""event"":""keydown"",""t"":58761},{""key"":""ArrowRight"",""event"":""keydown"",""t"":58793},{""key"":""ArrowRight"",""event"":""keydown"",""t"":58831},{""key"":""ArrowRight"",""event"":""keydown"",""t"":58861},{""key"":""ArrowRight"",""event"":""keydown"",""t"":58894},{""key"":""ArrowRight"",""event"":""keydown"",""t"":58927},{""key"":""ArrowRight"",""event"":""keydown"",""t"":58962},{""key"":""ArrowRight"",""event"":""keydown"",""t"":58994},{""key"":""ArrowRight"",""event"":""keydown"",""t"":59027},{""key"":""ArrowRight"",""event"":""keydown"",""t"":59062},{""key"":""ArrowRight"",""event"":""keydown"",""t"":59094},{""key"":""ArrowRight"",""event"":""keydown"",""t"":59128},{""key"":""ArrowRight"",""event"":""keydown"",""t"":59160},{""key"":""ArrowRight"",""event"":""keydown"",""t"":59195},{""key"":""ArrowRight"",""event"":""keydown"",""t"":59227},{""key"":""ArrowRight"",""event"":""keydown"",""t"":59260},{""key"":""ArrowRight"",""event"":""keydown"",""t"":59295},{""key"":""ArrowRight"",""event"":""keydown"",""t"":59328},{""key"":""ArrowRight"",""event"":""keydown"",""t"":59360},{""key"":""ArrowRight"",""event"":""keydown"",""t"":59392},{""key"":""ArrowRight"",""event"":""keydown"",""t"":59430},{""key"":""ArrowRight"",""event"":""keydown"",""t"":59459},{""key"":""ArrowLeft"",""event"":""keydown"",""t"":59489},{""key"":""ArrowRight"",""event"":""keyup"",""t"":59522},{""key"":"" "",""event"":""keyup"",""t"":59580},{""key"":""ArrowLeft"",""event"":""keyup"",""t"":59987},{""key"":""ArrowRight"",""event"":""keydown"",""t"":60007},{""key"":""ArrowRight"",""event"":""keyup"",""t"":60153},{""key"":""ArrowRight"",""event"":""keydown"",""t"":60355},{""key"":"" "",""event"":""keydown"",""t"":60737},{""key"":"" "",""event"":""keydown"",""t"":61257},{""key"":"" "",""event"":""keydown"",""t"":61289},{""key"":"" "",""event"":""keydown"",""t"":61323},{""key"":"" "",""event"":""keydown"",""t"":61356},{""key"":"" "",""event"":""keydown"",""t"":61389},{""key"":"" "",""event"":""keydown"",""t"":61425},{""key"":"" "",""event"":""keydown"",""t"":61455},{""key"":"" "",""event"":""keydown"",""t"":61489},{""key"":"" "",""event"":""keydown"",""t"":61522},{""key"":"" "",""event"":""keydown"",""t"":61556},{""key"":"" "",""event"":""keydown"",""t"":61588},{""key"":"" "",""event"":""keydown"",""t"":61621},{""key"":"" "",""event"":""keydown"",""t"":61656},{""key"":"" "",""event"":""keyup"",""t"":61664},{""key"":""ArrowRight"",""event"":""keyup"",""t"":61948},{""key"":""ArrowRight"",""event"":""keydown"",""t"":62342},{""key"":""ArrowRight"",""event"":""keyup"",""t"":62698},{""key"":""ArrowRight"",""event"":""keydown"",""t"":64381},{""key"":""ArrowRight"",""event"":""keydown"",""t"":64902},{""key"":""ArrowRight"",""event"":""keydown"",""t"":64935},{""key"":""ArrowRight"",""event"":""keydown"",""t"":64968},{""key"":""ArrowRight"",""event"":""keydown"",""t"":65000},{""key"":""ArrowRight"",""event"":""keydown"",""t"":65035},{""key"":""ArrowRight"",""event"":""keydown"",""t"":65068},{""key"":""ArrowRight"",""event"":""keydown"",""t"":65100},{""key"":""ArrowRight"",""event"":""keydown"",""t"":65135},{""key"":""ArrowRight"",""event"":""keydown"",""t"":65168},{""key"":""ArrowRight"",""event"":""keyup"",""t"":65192},{""key"":"" "",""event"":""keydown"",""t"":65878},{""key"":"" "",""event"":""keyup"",""t"":65984},{""key"":""Enter"",""event"":""keydown"",""t"":66440}]","[]"
"718677","","{""creativity-rating"":4,""creativity-free-response"":""The concept of using specific bolded words to affect the levels is something I've rarely seen before. The level design apart from that doesn't have much going on, but it feels like this is intentional."",""originality-rating"":3,""originality-free-response"":""The \""you're a box, get somewhere\"" is a basic videogame premise (e.g geometry dash), and the controls are relatively simple. The theme doesn't have much other than a simple background and the black box structures. The aesthetic this creates does seem to fit with the intent though, so it doesn't subtract much from the game."",""effectiveness-rating"":4,""effectiveness-free-response"":""The controls were smooth and the concept is fun. The effects of the bolded words were quite unclear, I originally thought they could be moved like platforms for you to stand on. After finding this was not the case I was still confused as I had used both words but still couldn't complete the level for a short while. Despite this I quite enjoyed the game, mostly due to the controls and creative concept."",""authenticity-rating"":4,""attention-check"":3,""intentionality-rating"":4,""authenticity-intentionality-free-response"":""It felt like an authentic concept with a basic framework. The smoothness of the gameplay shows the dev put personal effort into polishing the game. Especially because of the cube having bounce physics. Everything that happened in this game felt like it was intentional, just could've used a little more explanation.""}","evaluation-gemini-6-redact","survey","12","2611549","0.0-12.0","6992fdf8bd688e6c9f7627b8","6987c292780adf01bb926159","69a5f4a0ca5ef1ac58f695c3","","","","","","",""
"10717","","{""concept-creativity-rating"":5,""concept-implementation-rating"":4,""question1"":null}","concept-gemini-6-redact","survey","13","2622285","0.0-13.0","6992fdf8bd688e6c9f7627b8","6987c292780adf01bb926159","69a5f4a0ca5ef1ac58f695c3","","","","","","",""
"2145","You have completed all of the games!<br><br>Press any key to proceed to some final questions before returning to Prolific."," ","pre-baseline-questions","html-keyboard-response","14","2624431","0.0-14.0","6992fdf8bd688e6c9f7627b8","6987c292780adf01bb926159","69a5f4a0ca5ef1ac58f695c3","","","","","","",""
"13930","","{""baseline_originality_rating"":3,""baseline_effectiveness_rating"":4,""baseline_authenticity_rating"":4,""baseline_intentionality_rating"":4}","baseline-questions-rating","survey","15","2638376","0.0-15.0","6992fdf8bd688e6c9f7627b8","6987c292780adf01bb926159","69a5f4a0ca5ef1ac58f695c3","","","","","","",""
"77946","","{""ai_aware_question"":""No they were not. I played and reviewed all the games as if they were created by real people and judged them as such.""}","ai-aware-question","survey","16","2716326","0.0-16.0","6992fdf8bd688e6c9f7627b8","6987c292780adf01bb926159","69a5f4a0ca5ef1ac58f695c3","","","","","","",""
"5454","
        <p> You have completed the experiment! Press any key to save your data and get redirected back to Prolific. <strong>Please do not close the page until you have been redirected to Prolific.</strong> <p>
      "," ","goodbye","html-keyboard-response","17","2721781","0.0-17.0","6992fdf8bd688e6c9f7627b8","6987c292780adf01bb926159","69a5f4a0ca5ef1ac58f695c3","","","","","","",""
