"rt","stimulus","response","phase","trial_type","trial_index","time_elapsed","internal_node_id","prolific_subject_id","study_id","session_id","exit_reason","exit_stage","exit_progress","game_data","emergency_text","keystrokes","mouse_events"
"1104","Welcome!<br><br>In this study, you will play three short video games that were generated by Artificial Intelligence (AI) and complete a short survey after each game.<br><br>Please make sure you are in a quiet environment where you can focus for the duration of the study. Some games may use sound, so please ensure that your device's volume is not muted.<br><br>Press any key to begin."," ","welcome-message","html-keyboard-response","0","1106","0.0-0.0","5ede88a1c008530fb60aa557","6987c292780adf01bb926159","69a6696847a0f10aac61f10f","","","","","","",""
"3705","","{""commitment-check"":[""yes""]}","commitment-check","survey","1","4843","0.0-1.0","5ede88a1c008530fb60aa557","6987c292780adf01bb926159","69a6696847a0f10aac61f10f","","","","","","",""
"5540","Press any key to proceed to the first video game. Should you encounter a game-breaking bug, please report the issue in the Menu tab to the right of the screen."," ","pre-game-one-message","html-keyboard-response","2","10384","0.0-2.0","5ede88a1c008530fb60aa557","6987c292780adf01bb926159","69a6696847a0f10aac61f10f","","","","","","",""
"32194","","","game-gemini-3-suture","plugin-game-iframe","3","42599","0.0-3.0","5ede88a1c008530fb60aa557","6987c292780adf01bb926159","69a6696847a0f10aac61f10f","game-complete","level 60/1","{""stage"":""level 60/1"",""detail"":{""levelIndex"":59,""levelNum"":60,""totalLevels"":1,""stitchesLeft"":2,""playerX"":510.666666666668,""playerY"":242.75}}","{""result"":""win"",""levelsCompleted"":59}","null","[{""key"":"" "",""event"":""keyup"",""t"":86},{""key"":""d"",""event"":""keydown"",""t"":17301},{""key"":""d"",""event"":""keyup"",""t"":17466},{""key"":""w"",""event"":""keydown"",""t"":17883},{""key"":""w"",""event"":""keyup"",""t"":18149},{""key"":""ArrowUp"",""event"":""keydown"",""t"":20288},{""key"":""ArrowUp"",""event"":""keyup"",""t"":20455},{""key"":""ArrowRight"",""event"":""keydown"",""t"":21288},{""key"":""ArrowRight"",""event"":""keyup"",""t"":21524},{""key"":""ArrowRight"",""event"":""keydown"",""t"":21648},{""key"":""ArrowRight"",""event"":""keyup"",""t"":21766},{""key"":""ArrowRight"",""event"":""keydown"",""t"":21942},{""key"":""ArrowRight"",""event"":""keyup"",""t"":22307},{""key"":""ArrowUp"",""event"":""keydown"",""t"":22532},{""key"":""ArrowUp"",""event"":""keyup"",""t"":22714},{""key"":""ArrowRight"",""event"":""keydown"",""t"":22763},{""key"":""ArrowRight"",""event"":""keyup"",""t"":22950},{""key"":""ArrowUp"",""event"":""keydown"",""t"":23021},{""key"":""ArrowUp"",""event"":""keyup"",""t"":23271},{""key"":""ArrowRight"",""event"":""keydown"",""t"":23331},{""key"":""ArrowRight"",""event"":""keyup"",""t"":23795},{""key"":""ArrowRight"",""event"":""keydown"",""t"":24260},{""key"":""ArrowRight"",""event"":""keyup"",""t"":24418},{""key"":""ArrowRight"",""event"":""keydown"",""t"":24795},{""key"":""ArrowRight"",""event"":""keydown"",""t"":25287},{""key"":""ArrowRight"",""event"":""keydown"",""t"":25316},{""key"":""ArrowRight"",""event"":""keydown"",""t"":25346},{""key"":""ArrowRight"",""event"":""keydown"",""t"":25376},{""key"":""ArrowRight"",""event"":""keydown"",""t"":25406},{""key"":""ArrowRight"",""event"":""keydown"",""t"":25434},{""key"":""ArrowRight"",""event"":""keydown"",""t"":25463},{""key"":""ArrowRight"",""event"":""keydown"",""t"":25493},{""key"":""ArrowRight"",""event"":""keydown"",""t"":25523},{""key"":""ArrowRight"",""event"":""keydown"",""t"":25553},{""key"":""ArrowRight"",""event"":""keydown"",""t"":25582},{""key"":""ArrowRight"",""event"":""keydown"",""t"":25613},{""key"":""ArrowRight"",""event"":""keydown"",""t"":25645},{""key"":""ArrowRight"",""event"":""keydown"",""t"":25672},{""key"":""ArrowUp"",""event"":""keydown"",""t"":25679},{""key"":""ArrowRight"",""event"":""keyup"",""t"":25719},{""key"":""ArrowUp"",""event"":""keyup"",""t"":25798},{""key"":""ArrowRight"",""event"":""keydown"",""t"":26346},{""key"":""ArrowRight"",""event"":""keyup"",""t"":26500},{""key"":""ArrowUp"",""event"":""keydown"",""t"":26657},{""key"":""ArrowUp"",""event"":""keyup"",""t"":26793},{""key"":""Enter"",""event"":""keydown"",""t"":32188}]","[]"
"80198","","{""creativity-rating"":1,""creativity-free-response"":""had no goal and no explanation of what was going on"",""originality-rating"":1,""originality-free-response"":""nothing about it made sense what so ever "",""effectiveness-rating"":1,""effectiveness-free-response"":""it did not explain the goal and what to do"",""authenticity-rating"":1,""attention-check"":3,""intentionality-rating"":4,""authenticity-intentionality-free-response"":""it shows no one put any effort into this game""}","evaluation-gemini-3-suture","survey","4","122846","0.0-4.0","5ede88a1c008530fb60aa557","6987c292780adf01bb926159","69a6696847a0f10aac61f10f","","","","","","",""
"15375","","{""concept-creativity-rating"":2,""concept-implementation-rating"":2,""question1"":null}","concept-gemini-3-suture","survey","5","138239","0.0-5.0","5ede88a1c008530fb60aa557","6987c292780adf01bb926159","69a6696847a0f10aac61f10f","","","","","","",""
"1356","You have completed your evaluation of the first video game.<br><br>Press any key to proceed to the second game."," ","pre-game-two-message","html-keyboard-response","6","139596","0.0-6.0","5ede88a1c008530fb60aa557","6987c292780adf01bb926159","69a6696847a0f10aac61f10f","","","","","","",""
"381158","","","game-gemini-4-substratum","plugin-game-iframe","7","520782","0.0-7.0","5ede88a1c008530fb60aa557","6987c292780adf01bb926159","69a6696847a0f10aac61f10f","game-complete","level 4/3","{""stage"":""level 4/3"",""detail"":{""levelIndex"":3,""levelNum"":4,""totalLevels"":3,""progressPct"":null,""heroX"":850,""heroMoving"":true,""isGameOver"":true}}","{""result"":""win"",""levelsCompleted"":3}","null","[{""key"":"" "",""event"":""keyup"",""t"":93},{""key"":"" "",""event"":""keydown"",""t"":4324},{""key"":"" "",""event"":""keyup"",""t"":4461},{""key"":"" "",""event"":""keydown"",""t"":12340},{""key"":"" "",""event"":""keyup"",""t"":12499},{""key"":""ArrowUp"",""event"":""keydown"",""t"":54702},{""key"":""ArrowUp"",""event"":""keyup"",""t"":54934},{""key"":""ArrowUp"",""event"":""keydown"",""t"":55068},{""key"":""ArrowUp"",""event"":""keyup"",""t"":55151},{""key"":""ArrowUp"",""event"":""keydown"",""t"":82947},{""key"":""ArrowUp"",""event"":""keyup"",""t"":83083},{""key"":""ArrowDown"",""event"":""keydown"",""t"":83157},{""key"":""ArrowDown"",""event"":""keyup"",""t"":83273},{""key"":""ArrowDown"",""event"":""keydown"",""t"":83359},{""key"":""ArrowDown"",""event"":""keyup"",""t"":83415},{""key"":""ArrowUp"",""event"":""keydown"",""t"":83434},{""key"":""ArrowUp"",""event"":""keyup"",""t"":83610},{""key"":""Enter"",""event"":""keydown"",""t"":381149}]","[]"
"79518","","{""creativity-rating"":2,""creativity-free-response"":""that game was so boring and unintresting"",""originality-rating"":1,""originality-free-response"":""half of it barely worked and was just making me mad"",""effectiveness-rating"":1,""effectiveness-free-response"":""That second bit was so poorly made i hated it"",""authenticity-rating"":1,""attention-check"":3,""intentionality-rating"":5,""authenticity-intentionality-free-response"":""That was definitely made to annoy someone""}","evaluation-gemini-4-substratum","survey","8","600335","0.0-8.0","5ede88a1c008530fb60aa557","6987c292780adf01bb926159","69a6696847a0f10aac61f10f","","","","","","",""
"8862","","{""concept-creativity-rating"":1,""concept-implementation-rating"":1,""question1"":null}","concept-gemini-4-substratum","survey","9","609212","0.0-9.0","5ede88a1c008530fb60aa557","6987c292780adf01bb926159","69a6696847a0f10aac61f10f","","","","","","",""
"1229","You have completed your evaluation of the second video game.<br><br>Press any key to proceed to the final game."," ","pre-game-three-message","html-keyboard-response","10","610442","0.0-10.0","5ede88a1c008530fb60aa557","6987c292780adf01bb926159","69a6696847a0f10aac61f10f","","","","","","",""
"269289","","","game-chat-2-murmuration","plugin-game-iframe","11","879781","0.0-11.0","5ede88a1c008530fb60aa557","6987c292780adf01bb926159","69a6696847a0f10aac61f10f","emergency-exit","segment-1:ring-gate (0/25)","{""stage"":""segment-1:ring-gate (0/25)"",""detail"":{""segmentIndex"":1,""gameState"":""PLAYING"",""gateState"":{""gate1Open"":false,""gate2Open"":false,""gate3Open"":false,""gate1Count"":0,""gate2Hold"":0,""gate3Hold"":0}}}","null","right click will not scatter","[{""key"":"" "",""event"":""keyup"",""t"":123},{""key"":"" "",""event"":""keydown"",""t"":8409},{""key"":"" "",""event"":""keyup"",""t"":8527},{""key"":""a"",""event"":""keydown"",""t"":12624},{""key"":""a"",""event"":""keydown"",""t"":13115},{""key"":""e"",""event"":""keydown"",""t"":13133},{""key"":""a"",""event"":""keyup"",""t"":13483},{""key"":""e"",""event"":""keyup"",""t"":13567},{""key"":""e"",""event"":""keydown"",""t"":13717},{""key"":""e"",""event"":""keyup"",""t"":13857},{""key"":""e"",""event"":""keydown"",""t"":14256},{""key"":""e"",""event"":""keyup"",""t"":14641},{""key"":""e"",""event"":""keydown"",""t"":14718},{""key"":""e"",""event"":""keyup"",""t"":14853},{""key"":""e"",""event"":""keydown"",""t"":14934},{""key"":""e"",""event"":""keyup"",""t"":15083},{""key"":""e"",""event"":""keydown"",""t"":15159},{""key"":""e"",""event"":""keyup"",""t"":15290},{""key"":""e"",""event"":""keydown"",""t"":15416},{""key"":""e"",""event"":""keyup"",""t"":15551},{""key"":""e"",""event"":""keydown"",""t"":15636},{""key"":""e"",""event"":""keyup"",""t"":15795},{""key"":""e"",""event"":""keydown"",""t"":18135},{""key"":""e"",""event"":""keyup"",""t"":18292},{""key"":""e"",""event"":""keydown"",""t"":18384},{""key"":""e"",""event"":""keyup"",""t"":18542},{""key"":""e"",""event"":""keydown"",""t"":18636},{""key"":""e"",""event"":""keyup"",""t"":18795},{""key"":""e"",""event"":""keydown"",""t"":18883},{""key"":""e"",""event"":""keyup"",""t"":19000},{""key"":""e"",""event"":""keydown"",""t"":19116},{""key"":""e"",""event"":""keyup"",""t"":19233},{""key"":""e"",""event"":""keydown"",""t"":19351},{""key"":""e"",""event"":""keyup"",""t"":19488},{""key"":""q"",""event"":""keydown"",""t"":20552},{""key"":""q"",""event"":""keyup"",""t"":20717},{""key"":""q"",""event"":""keydown"",""t"":21167},{""key"":""q"",""event"":""keyup"",""t"":21305},{""key"":""q"",""event"":""keydown"",""t"":21689},{""key"":""q"",""event"":""keyup"",""t"":21866},{""key"":""q"",""event"":""keydown"",""t"":21950},{""key"":""q"",""event"":""keyup"",""t"":22099},{""key"":""q"",""event"":""keydown"",""t"":22216},{""key"":""q"",""event"":""keyup"",""t"":22333},{""key"":""q"",""event"":""keydown"",""t"":22453},{""key"":""q"",""event"":""keyup"",""t"":22572},{""key"":""q"",""event"":""keydown"",""t"":22677},{""key"":""q"",""event"":""keyup"",""t"":22837},{""key"":""q"",""event"":""keydown"",""t"":22991},{""key"":""q"",""event"":""keyup"",""t"":23176},{""key"":""q"",""event"":""keydown"",""t"":23424},{""key"":""q"",""event"":""keyup"",""t"":23607},{""key"":""q"",""event"":""keydown"",""t"":24023},{""key"":""q"",""event"":""keyup"",""t"":24272},{""key"":""e"",""event"":""keydown"",""t"":42357},{""key"":""e"",""event"":""keyup"",""t"":42566},{""key"":""e"",""event"":""keydown"",""t"":42732},{""key"":""e"",""event"":""keyup"",""t"":42850},{""key"":""e"",""event"":""keydown"",""t"":43084},{""key"":""e"",""event"":""keyup"",""t"":43201},{""key"":""e"",""event"":""keydown"",""t"":43485},{""key"":""e"",""event"":""keyup"",""t"":43600},{""key"":""e"",""event"":""keydown"",""t"":43740},{""key"":""e"",""event"":""keyup"",""t"":43862},{""key"":""e"",""event"":""keydown"",""t"":44078},{""key"":""e"",""event"":""keyup"",""t"":44250},{""key"":""e"",""event"":""keydown"",""t"":44417},{""key"":""e"",""event"":""keyup"",""t"":44534},{""key"":""e"",""event"":""keydown"",""t"":68461},{""key"":""e"",""event"":""keyup"",""t"":68651},{""key"":""e"",""event"":""keydown"",""t"":68835},{""key"":""e"",""event"":""keyup"",""t"":69000},{""key"":""e"",""event"":""keydown"",""t"":69212},{""key"":""e"",""event"":""keyup"",""t"":69384},{""key"":""r"",""event"":""keydown"",""t"":118242},{""key"":""r"",""event"":""keyup"",""t"":118403},{""key"":"" "",""event"":""keydown"",""t"":120325},{""key"":"" "",""event"":""keyup"",""t"":120535},{""key"":""a"",""event"":""keydown"",""t"":129920},{""key"":""a"",""event"":""keydown"",""t"":130412},{""key"":""a"",""event"":""keydown"",""t"":130440},{""key"":""a"",""event"":""keydown"",""t"":130469},{""key"":""a"",""event"":""keydown"",""t"":130502},{""key"":""a"",""event"":""keydown"",""t"":130528},{""key"":""a"",""event"":""keydown"",""t"":130558},{""key"":""a"",""event"":""keydown"",""t"":130587},{""key"":""a"",""event"":""keydown"",""t"":130620},{""key"":""a"",""event"":""keydown"",""t"":130647},{""key"":""a"",""event"":""keydown"",""t"":130677},{""key"":""a"",""event"":""keydown"",""t"":130707},{""key"":""a"",""event"":""keydown"",""t"":130736},{""key"":""a"",""event"":""keydown"",""t"":130769},{""key"":""a"",""event"":""keydown"",""t"":130795},{""key"":""a"",""event"":""keydown"",""t"":130825},{""key"":""a"",""event"":""keydown"",""t"":130855},{""key"":""a"",""event"":""keydown"",""t"":130886},{""key"":""a"",""event"":""keydown"",""t"":130918},{""key"":""a"",""event"":""keydown"",""t"":130944},{""key"":""a"",""event"":""keydown"",""t"":130974},{""key"":""a"",""event"":""keydown"",""t"":131003},{""key"":""a"",""event"":""keydown"",""t"":131036},{""key"":""a"",""event"":""keyup"",""t"":131070},{""key"":""a"",""event"":""keydown"",""t"":131152},{""key"":""a"",""event"":""keyup"",""t"":131252},{""key"":""a"",""event"":""keydown"",""t"":131352},{""key"":""a"",""event"":""keyup"",""t"":131435},{""key"":""a"",""event"":""keydown"",""t"":131520},{""key"":""a"",""event"":""keyup"",""t"":131630},{""key"":""a"",""event"":""keydown"",""t"":131694},{""key"":""a"",""event"":""keyup"",""t"":131819},{""key"":""a"",""event"":""keydown"",""t"":131890},{""key"":""a"",""event"":""keyup"",""t"":132019},{""key"":""a"",""event"":""keydown"",""t"":132088},{""key"":""a"",""event"":""keyup"",""t"":132236},{""key"":""a"",""event"":""keydown"",""t"":132293},{""key"":""a"",""event"":""keyup"",""t"":132424},{""key"":""a"",""event"":""keydown"",""t"":132473},{""key"":""a"",""event"":""keyup"",""t"":132618},{""key"":""e"",""event"":""keydown"",""t"":137851},{""key"":""e"",""event"":""keydown"",""t"":138337},{""key"":""e"",""event"":""keydown"",""t"":138370},{""key"":""e"",""event"":""keydown"",""t"":138397},{""key"":""e"",""event"":""keydown"",""t"":138426},{""key"":""e"",""event"":""keydown"",""t"":138457},{""key"":""e"",""event"":""keydown"",""t"":138486},{""key"":""e"",""event"":""keydown"",""t"":138519},{""key"":""e"",""event"":""keydown"",""t"":138545},{""key"":""e"",""event"":""keydown"",""t"":138575},{""key"":""e"",""event"":""keydown"",""t"":138604},{""key"":""e"",""event"":""keydown"",""t"":138635},{""key"":""e"",""event"":""keydown"",""t"":138663},{""key"":""e"",""event"":""keydown"",""t"":138693},{""key"":""e"",""event"":""keydown"",""t"":138723},{""key"":""e"",""event"":""keydown"",""t"":138753},{""key"":""e"",""event"":""keydown"",""t"":138785},{""key"":""e"",""event"":""keydown"",""t"":138812},{""key"":""e"",""event"":""keydown"",""t"":138842},{""key"":""e"",""event"":""keydown"",""t"":138871},{""key"":""e"",""event"":""keydown"",""t"":138903},{""key"":""e"",""event"":""keydown"",""t"":138935},{""key"":""e"",""event"":""keyup"",""t"":138974},{""key"":""e"",""event"":""keydown"",""t"":139069},{""key"":""e"",""event"":""keyup"",""t"":139171},{""key"":""e"",""event"":""keydown"",""t"":139242},{""key"":""e"",""event"":""keyup"",""t"":139336},{""key"":""e"",""event"":""keydown"",""t"":139402},{""key"":""e"",""event"":""keyup"",""t"":139513},{""key"":""e"",""event"":""keydown"",""t"":139570},{""key"":""e"",""event"":""keyup"",""t"":139685},{""key"":""e"",""event"":""keydown"",""t"":139743},{""key"":""e"",""event"":""keyup"",""t"":139855},{""key"":""e"",""event"":""keydown"",""t"":139919},{""key"":""e"",""event"":""keyup"",""t"":140019},{""key"":""e"",""event"":""keydown"",""t"":140087},{""key"":""e"",""event"":""keyup"",""t"":140169},{""key"":""e"",""event"":""keydown"",""t"":140244},{""key"":""e"",""event"":""keyup"",""t"":140328},{""key"":""e"",""event"":""keydown"",""t"":140394},{""key"":""e"",""event"":""keyup"",""t"":140485},{""key"":""e"",""event"":""keydown"",""t"":140552},{""key"":""e"",""event"":""keyup"",""t"":140641},{""key"":""e"",""event"":""keydown"",""t"":140719},{""key"":""e"",""event"":""keyup"",""t"":140813},{""key"":""e"",""event"":""keydown"",""t"":140878},{""key"":""e"",""event"":""keyup"",""t"":140978},{""key"":""e"",""event"":""keydown"",""t"":141053},{""key"":""e"",""event"":""keyup"",""t"":141136},{""key"":""e"",""event"":""keydown"",""t"":141220},{""key"":""e"",""event"":""keyup"",""t"":141311},{""key"":""e"",""event"":""keydown"",""t"":141380},{""key"":""e"",""event"":""keyup"",""t"":141472},{""key"":""e"",""event"":""keydown"",""t"":141537},{""key"":""e"",""event"":""keyup"",""t"":141640},{""key"":""d"",""event"":""keydown"",""t"":144153},{""key"":""d"",""event"":""keyup"",""t"":144239},{""key"":""d"",""event"":""keydown"",""t"":144296},{""key"":""d"",""event"":""keyup"",""t"":144401},{""key"":""d"",""event"":""keydown"",""t"":144459},{""key"":""d"",""event"":""keyup"",""t"":144553},{""key"":""d"",""event"":""keydown"",""t"":144624},{""key"":""d"",""event"":""keyup"",""t"":144703},{""key"":""d"",""event"":""keydown"",""t"":144798},{""key"":""d"",""event"":""keyup"",""t"":144891},{""key"":""d"",""event"":""keydown"",""t"":144969},{""key"":""d"",""event"":""keyup"",""t"":145047},{""key"":""d"",""event"":""keydown"",""t"":145122},{""key"":""d"",""event"":""keyup"",""t"":145202},{""key"":""d"",""event"":""keydown"",""t"":145302},{""key"":""d"",""event"":""keyup"",""t"":145418},{""key"":""d"",""event"":""keydown"",""t"":145468},{""key"":""d"",""event"":""keyup"",""t"":145567},{""key"":""d"",""event"":""keydown"",""t"":145643},{""key"":""d"",""event"":""keyup"",""t"":145735},{""key"":""d"",""event"":""keydown"",""t"":145812},{""key"":""d"",""event"":""keyup"",""t"":145907},{""key"":""d"",""event"":""keydown"",""t"":146003},{""key"":""d"",""event"":""keyup"",""t"":146054},{""key"":""d"",""event"":""keydown"",""t"":146219},{""key"":""d"",""event"":""keyup"",""t"":146319},{""key"":""d"",""event"":""keydown"",""t"":146395},{""key"":""d"",""event"":""keyup"",""t"":146502},{""key"":""d"",""event"":""keydown"",""t"":146595},{""key"":""d"",""event"":""keyup"",""t"":146686},{""key"":""d"",""event"":""keydown"",""t"":146778},{""key"":""d"",""event"":""keyup"",""t"":146869},{""key"":""d"",""event"":""keydown"",""t"":146971},{""key"":""d"",""event"":""keyup"",""t"":147074},{""key"":""d"",""event"":""keydown"",""t"":147158},{""key"":""d"",""event"":""keyup"",""t"":147280},{""key"":""d"",""event"":""keydown"",""t"":147353},{""key"":""d"",""event"":""keyup"",""t"":147491},{""key"":""d"",""event"":""keydown"",""t"":147575},{""key"":""d"",""event"":""keyup"",""t"":147791},{""key"":""r"",""event"":""keydown"",""t"":240527},{""key"":""r"",""event"":""keyup"",""t"":240695},{""key"":"" "",""event"":""keydown"",""t"":241927},{""key"":"" "",""event"":""keyup"",""t"":242084},{""key"":""r"",""event"":""keydown"",""t"":262178},{""key"":""i"",""event"":""keydown"",""t"":262317},{""key"":""r"",""event"":""keyup"",""t"":262328},{""key"":""i"",""event"":""keyup"",""t"":262398},{""key"":""g"",""event"":""keydown"",""t"":262572},{""key"":""g"",""event"":""keyup"",""t"":262641},{""key"":""h"",""event"":""keydown"",""t"":262771},{""key"":""h"",""event"":""keyup"",""t"":262822},{""key"":""t"",""event"":""keydown"",""t"":262862},{""key"":""t"",""event"":""keyup"",""t"":262958},{""key"":"" "",""event"":""keydown"",""t"":263048},{""key"":"" "",""event"":""keyup"",""t"":263139},{""key"":""c"",""event"":""keydown"",""t"":263478},{""key"":""c"",""event"":""keyup"",""t"":263588},{""key"":""l"",""event"":""keydown"",""t"":263691},{""key"":""l"",""event"":""keyup"",""t"":263763},{""key"":""i"",""event"":""keydown"",""t"":263866},{""key"":""i"",""event"":""keyup"",""t"":263942},{""key"":""c"",""event"":""keydown"",""t"":263958},{""key"":""c"",""event"":""keyup"",""t"":264081},{""key"":""k"",""event"":""keydown"",""t"":264223},{""key"":""k"",""event"":""keyup"",""t"":264307},{""key"":"" "",""event"":""keydown"",""t"":264471},{""key"":"" "",""event"":""keyup"",""t"":264562},{""key"":""w"",""event"":""keydown"",""t"":264705},{""key"":""w"",""event"":""keyup"",""t"":264813},{""key"":""i"",""event"":""keydown"",""t"":264915},{""key"":""i"",""event"":""keyup"",""t"":264978},{""key"":""l"",""event"":""keydown"",""t"":265095},{""key"":""l"",""event"":""keyup"",""t"":265205},{""key"":""l"",""event"":""keydown"",""t"":265249},{""key"":""l"",""event"":""keyup"",""t"":265339},{""key"":"" "",""event"":""keydown"",""t"":265528},{""key"":"" "",""event"":""keyup"",""t"":265625},{""key"":""n"",""event"":""keydown"",""t"":265748},{""key"":""n"",""event"":""keyup"",""t"":265812},{""key"":""o"",""event"":""keydown"",""t"":265974},{""key"":""o"",""event"":""keyup"",""t"":266060},{""key"":""t"",""event"":""keydown"",""t"":266121},{""key"":""t"",""event"":""keyup"",""t"":266218},{""key"":"" "",""event"":""keydown"",""t"":266590},{""key"":"" "",""event"":""keyup"",""t"":266689},{""key"":""s"",""event"":""keydown"",""t"":266772},{""key"":""s"",""event"":""keyup"",""t"":266889},{""key"":""c"",""event"":""keydown"",""t"":267038},{""key"":""c"",""event"":""keyup"",""t"":267110},{""key"":""a"",""event"":""keydown"",""t"":267174},{""key"":""t"",""event"":""keydown"",""t"":267288},{""key"":""a"",""event"":""keyup"",""t"":267306},{""key"":""t"",""event"":""keyup"",""t"":267373},{""key"":""t"",""event"":""keydown"",""t"":267434},{""key"":""t"",""event"":""keyup"",""t"":267524},{""key"":""e"",""event"":""keydown"",""t"":267540},{""key"":""e"",""event"":""keyup"",""t"":267656},{""key"":""r"",""event"":""keydown"",""t"":267748},{""key"":""r"",""event"":""keyup"",""t"":267846}]","[]"
"79521","","{""creativity-rating"":3,""creativity-free-response"":""i mean it was some what better than the others in terms of an actual task"",""originality-rating"":2,""originality-free-response"":""was not that much in the game "",""effectiveness-rating"":1,""effectiveness-free-response"":""The scatter feature did not work"",""authenticity-rating"":1,""attention-check"":3,""intentionality-rating"":3,""authenticity-intentionality-free-response"":""the game had potential but lacked effort""}","evaluation-chat-2-murmuration","survey","12","959329","0.0-12.0","5ede88a1c008530fb60aa557","6987c292780adf01bb926159","69a6696847a0f10aac61f10f","","","","","","",""
"8179","","{""concept-creativity-rating"":3,""concept-implementation-rating"":2,""question1"":null}","concept-chat-2-murmuration","survey","13","967524","0.0-13.0","5ede88a1c008530fb60aa557","6987c292780adf01bb926159","69a6696847a0f10aac61f10f","","","","","","",""
"2482","You have completed all of the games!<br><br>Press any key to proceed to some final questions before returning to Prolific."," ","pre-baseline-questions","html-keyboard-response","14","970007","0.0-14.0","5ede88a1c008530fb60aa557","6987c292780adf01bb926159","69a6696847a0f10aac61f10f","","","","","","",""
"17619","","{""baseline_originality_rating"":5,""baseline_effectiveness_rating"":5,""baseline_authenticity_rating"":5,""baseline_intentionality_rating"":5}","baseline-questions-rating","survey","15","987655","0.0-15.0","5ede88a1c008530fb60aa557","6987c292780adf01bb926159","69a6696847a0f10aac61f10f","","","","","","",""
"45806","","{""ai_aware_question"":""i mean it makes sense that they were ai generated as i do not think you could make worse games if you tried""}","ai-aware-question","survey","16","1033472","0.0-16.0","5ede88a1c008530fb60aa557","6987c292780adf01bb926159","69a6696847a0f10aac61f10f","","","","","","",""
"4917","
        <p> You have completed the experiment! Press any key to save your data and get redirected back to Prolific. <strong>Please do not close the page until you have been redirected to Prolific.</strong> <p>
      "," ","goodbye","html-keyboard-response","17","1038391","0.0-17.0","5ede88a1c008530fb60aa557","6987c292780adf01bb926159","69a6696847a0f10aac61f10f","","","","","","",""
