"rt","stimulus","response","phase","trial_type","trial_index","time_elapsed","internal_node_id","prolific_subject_id","study_id","session_id","exit_reason","exit_stage","exit_progress","game_data","emergency_text","keystrokes","mouse_events"
"12764","Welcome!<br><br>In this study, you will play three short video games that were generated by Artificial Intelligence (AI) and complete a short survey after each game.<br><br>Please make sure you are in a quiet environment where you can focus for the duration of the study. Some games may use sound, so please ensure that your device's volume is not muted.<br><br>Press any key to begin.","m","welcome-message","html-keyboard-response","0","12773","0.0-0.0","5b68c9eb87af310001584803","6987c292780adf01bb926159","69a5f49f9e93e0bdea39b5c5","","","","","","",""
"7348","","{""commitment-check"":[""yes""]}","commitment-check","survey","1","20173","0.0-1.0","5b68c9eb87af310001584803","6987c292780adf01bb926159","69a5f49f9e93e0bdea39b5c5","","","","","","",""
"3287","Press any key to proceed to the first video game. Should you encounter a game-breaking bug, please report the issue in the Menu tab to the right of the screen.","b","pre-game-one-message","html-keyboard-response","2","23462","0.0-2.0","5b68c9eb87af310001584803","6987c292780adf01bb926159","69a5f49f9e93e0bdea39b5c5","","","","","","",""
"154308","","","game-claude-3-bureaucromancer","plugin-game-iframe","3","177824","0.0-3.0","5b68c9eb87af310001584803","6987c292780adf01bb926159","69a5f49f9e93e0bdea39b5c5","game-complete","end:win","{""stage"":""end:win"",""detail"":{""won"":true,""score"":null,""casesProcessed"":22}}","{""result"":""win"",""score"":150,""casesProcessed"":22,""casesCorrect"":14,""casesMisfiled"":8,""bestStreak"":4,""dragonCorrect"":true}","null","[{""key"":""b"",""event"":""keyup"",""t"":84},{""key"":"" "",""event"":""keydown"",""t"":19738},{""key"":"" "",""event"":""keyup"",""t"":19884},{""key"":""a"",""event"":""keydown"",""t"":30311},{""key"":""a"",""event"":""keyup"",""t"":30467},{""key"":""a"",""event"":""keydown"",""t"":33768},{""key"":""a"",""event"":""keyup"",""t"":33891},{""key"":""a"",""event"":""keydown"",""t"":36677},{""key"":""a"",""event"":""keyup"",""t"":36786},{""key"":""a"",""event"":""keydown"",""t"":39547},{""key"":""a"",""event"":""keyup"",""t"":39657},{""key"":""d"",""event"":""keydown"",""t"":54338},{""key"":""d"",""event"":""keyup"",""t"":54479},{""key"":""a"",""event"":""keydown"",""t"":60247},{""key"":""a"",""event"":""keyup"",""t"":60364},{""key"":""a"",""event"":""keydown"",""t"":68207},{""key"":""a"",""event"":""keyup"",""t"":68376},{""key"":""r"",""event"":""keydown"",""t"":71465},{""key"":""r"",""event"":""keyup"",""t"":71628},{""key"":""r"",""event"":""keydown"",""t"":73919},{""key"":""r"",""event"":""keyup"",""t"":74063},{""key"":""a"",""event"":""keydown"",""t"":83902},{""key"":""a"",""event"":""keyup"",""t"":84084},{""key"":""a"",""event"":""keydown"",""t"":88228},{""key"":""a"",""event"":""keyup"",""t"":88403},{""key"":""r"",""event"":""keydown"",""t"":91494},{""key"":""r"",""event"":""keyup"",""t"":91664},{""key"":""a"",""event"":""keydown"",""t"":96285},{""key"":""a"",""event"":""keyup"",""t"":96467},{""key"":""a"",""event"":""keydown"",""t"":99975},{""key"":""a"",""event"":""keyup"",""t"":100152},{""key"":""r"",""event"":""keydown"",""t"":104057},{""key"":""r"",""event"":""keyup"",""t"":104165},{""key"":""a"",""event"":""keydown"",""t"":115868},{""key"":""a"",""event"":""keyup"",""t"":116015},{""key"":""a"",""event"":""keydown"",""t"":119675},{""key"":""a"",""event"":""keyup"",""t"":119866},{""key"":""a"",""event"":""keydown"",""t"":124518},{""key"":""a"",""event"":""keyup"",""t"":124675},{""key"":""a"",""event"":""keydown"",""t"":127952},{""key"":""a"",""event"":""keyup"",""t"":128118},{""key"":""d"",""event"":""keydown"",""t"":131677},{""key"":""d"",""event"":""keyup"",""t"":131897},{""key"":""d"",""event"":""keydown"",""t"":134474},{""key"":""d"",""event"":""keyup"",""t"":134640},{""key"":""a"",""event"":""keydown"",""t"":143494},{""key"":""a"",""event"":""keyup"",""t"":143701},{""key"":""Enter"",""event"":""keydown"",""t"":154303}]","[]"
"490378","","{""creativity-rating"":5,""creativity-free-response"":""what made it creative was the usage of case files and having 3 different functions of approve, deny and redirect made the game quite fun and challenging and the theme of fantastical creatures mixed with detective work made it very unique in my eyes, there was nothing uncreative about it "",""originality-rating"":4,""originality-free-response"":""what felt original was the fantasy theme mixed in with being detective and having to deal with cases of these beings, i have never played a game that has mixed these elements before which was very surprising for me and i enjoyed the timed mechanic of having to choose the right option"",""effectiveness-rating"":5,""effectiveness-free-response"":""it was very enjoyable and it worked very well as the beginning stage started off slow with there only being a couple of things to look out for but as the game progressed the timer increased and more attributes were added which made it more challenging and fun, i found nothing frustrating or that didn't work well "",""authenticity-rating"":5,""attention-check"":3,""intentionality-rating"":5,""authenticity-intentionality-free-response"":""i believe this game was created with intent and a great deal of effort as the art and design of the game looked good and the rules of the game felt like they had a human touch to them as it seems familiar with games I've played before""}","evaluation-claude-3-bureaucromancer","survey","4","668257","0.0-4.0","5b68c9eb87af310001584803","6987c292780adf01bb926159","69a5f49f9e93e0bdea39b5c5","","","","","","",""
"26574","","{""concept-creativity-rating"":5,""concept-implementation-rating"":5,""question1"":null}","concept-claude-3-bureaucromancer","survey","5","694857","0.0-5.0","5b68c9eb87af310001584803","6987c292780adf01bb926159","69a5f49f9e93e0bdea39b5c5","","","","","","",""
"3232","You have completed your evaluation of the first video game.<br><br>Press any key to proceed to the second game.","m","pre-game-two-message","html-keyboard-response","6","698091","0.0-6.0","5b68c9eb87af310001584803","6987c292780adf01bb926159","69a5f49f9e93e0bdea39b5c5","","","","","","",""
"599890","","","game-chat-3-orbit","plugin-game-iframe","7","1297995","0.0-7.0","5b68c9eb87af310001584803","6987c292780adf01bb926159","69a5f49f9e93e0bdea39b5c5","emergency-exit","movement-3/3:playing","{""stage"":""movement-3/3:playing"",""detail"":{""state"":""playing"",""movementIndex"":2,""launchesUsed"":22,""phraseProgress"":0}}","null","i am stuck in the game and have no way to exit it","[{""key"":""j"",""event"":""keydown"",""t"":8},{""key"":""j"",""event"":""keyup"",""t"":33},{""key"":""m"",""event"":""keyup"",""t"":36},{""key"":""n"",""event"":""keydown"",""t"":205490},{""key"":""n"",""event"":""keyup"",""t"":205575},{""key"":""n"",""event"":""keydown"",""t"":207964},{""key"":""n"",""event"":""keyup"",""t"":208090},{""key"":""n"",""event"":""keydown"",""t"":209240},{""key"":""n"",""event"":""keyup"",""t"":209424},{""key"":""m"",""event"":""keydown"",""t"":212439},{""key"":""m"",""event"":""keyup"",""t"":212583},{""key"":""n"",""event"":""keydown"",""t"":213340},{""key"":""n"",""event"":""keyup"",""t"":213499},{""key"":""n"",""event"":""keydown"",""t"":214280},{""key"":""n"",""event"":""keyup"",""t"":214433},{""key"":""n"",""event"":""keydown"",""t"":214852},{""key"":""n"",""event"":""keyup"",""t"":215023},{""key"":""Enter"",""event"":""keydown"",""t"":236752},{""key"":""Enter"",""event"":""keyup"",""t"":236946},{""key"":"" "",""event"":""keydown"",""t"":239220},{""key"":"" "",""event"":""keyup"",""t"":239352},{""key"":""m"",""event"":""keydown"",""t"":252168},{""key"":""m"",""event"":""keyup"",""t"":252310},{""key"":""n"",""event"":""keydown"",""t"":252955},{""key"":""n"",""event"":""keyup"",""t"":253089},{""key"":""n"",""event"":""keydown"",""t"":290181},{""key"":""n"",""event"":""keyup"",""t"":290312},{""key"":""n"",""event"":""keydown"",""t"":291353},{""key"":""n"",""event"":""keyup"",""t"":291512},{""key"":""n"",""event"":""keydown"",""t"":291812},{""key"":""n"",""event"":""keyup"",""t"":291979},{""key"":""Enter"",""event"":""keydown"",""t"":294944},{""key"":""Enter"",""event"":""keyup"",""t"":295100},{""key"":""n"",""event"":""keydown"",""t"":296535},{""key"":""n"",""event"":""keyup"",""t"":296654},{""key"":""m"",""event"":""keydown"",""t"":296811},{""key"":""m"",""event"":""keyup"",""t"":296984},{""key"":""m"",""event"":""keydown"",""t"":297384},{""key"":""m"",""event"":""keyup"",""t"":297503},{""key"":""n"",""event"":""keydown"",""t"":383819},{""key"":""n"",""event"":""keyup"",""t"":383951},{""key"":""n"",""event"":""keydown"",""t"":384107},{""key"":""n"",""event"":""keyup"",""t"":384202},{""key"":""n"",""event"":""keydown"",""t"":404321},{""key"":""n"",""event"":""keyup"",""t"":404423},{""key"":""n"",""event"":""keydown"",""t"":511470},{""key"":""n"",""event"":""keyup"",""t"":511574},{""key"":""n"",""event"":""keydown"",""t"":512210},{""key"":""n"",""event"":""keyup"",""t"":512336},{""key"":""r"",""event"":""keydown"",""t"":520458},{""key"":""r"",""event"":""keyup"",""t"":520616},{""key"":""m"",""event"":""keydown"",""t"":524275},{""key"":""m"",""event"":""keyup"",""t"":524368},{""key"":""Enter"",""event"":""keydown"",""t"":524598},{""key"":""Enter"",""event"":""keyup"",""t"":524731},{""key"":""Enter"",""event"":""keydown"",""t"":524981},{""key"":""Enter"",""event"":""keyup"",""t"":525114},{""key"":""Enter"",""event"":""keydown"",""t"":525259},{""key"":""Enter"",""event"":""keyup"",""t"":525398},{""key"":""Enter"",""event"":""keydown"",""t"":526283},{""key"":""Enter"",""event"":""keyup"",""t"":526431},{""key"":""n"",""event"":""keydown"",""t"":580342},{""key"":""n"",""event"":""keyup"",""t"":580548},{""key"":""n"",""event"":""keydown"",""t"":580681},{""key"":""n"",""event"":""keyup"",""t"":580809},{""key"":""n"",""event"":""keydown"",""t"":580926},{""key"":""n"",""event"":""keyup"",""t"":581027},{""key"":""n"",""event"":""keydown"",""t"":581159},{""key"":""n"",""event"":""keyup"",""t"":581263},{""key"":""n"",""event"":""keydown"",""t"":581376},{""key"":""n"",""event"":""keyup"",""t"":581468},{""key"":""i"",""event"":""keydown"",""t"":585743},{""key"":""i"",""event"":""keyup"",""t"":585797},{""key"":"" "",""event"":""keydown"",""t"":586368},{""key"":"" "",""event"":""keyup"",""t"":586463},{""key"":""a"",""event"":""keydown"",""t"":586492},{""key"":""m"",""event"":""keydown"",""t"":586624},{""key"":""a"",""event"":""keyup"",""t"":586642},{""key"":""m"",""event"":""keyup"",""t"":586764},{""key"":"" "",""event"":""keydown"",""t"":586925},{""key"":""s"",""event"":""keydown"",""t"":587034},{""key"":"" "",""event"":""keyup"",""t"":587043},{""key"":""s"",""event"":""keyup"",""t"":587142},{""key"":""t"",""event"":""keydown"",""t"":587342},{""key"":""t"",""event"":""keyup"",""t"":587474},{""key"":""u"",""event"":""keydown"",""t"":587479},{""key"":""u"",""event"":""keyup"",""t"":587578},{""key"":""c"",""event"":""keydown"",""t"":587629},{""key"":""k"",""event"":""keydown"",""t"":587712},{""key"":""k"",""event"":""keyup"",""t"":587809},{""key"":""c"",""event"":""keyup"",""t"":587841},{""key"":"" "",""event"":""keydown"",""t"":587876},{""key"":"" "",""event"":""keyup"",""t"":587958},{""key"":""i"",""event"":""keydown"",""t"":588041},{""key"":""i"",""event"":""keyup"",""t"":588125},{""key"":""n"",""event"":""keydown"",""t"":588242},{""key"":""n"",""event"":""keyup"",""t"":588364},{""key"":"" "",""event"":""keydown"",""t"":588425},{""key"":"" "",""event"":""keyup"",""t"":588525},{""key"":""t"",""event"":""keydown"",""t"":588527},{""key"":""t"",""event"":""keyup"",""t"":588645},{""key"":""h"",""event"":""keydown"",""t"":588675},{""key"":""e"",""event"":""keydown"",""t"":588780},{""key"":""h"",""event"":""keyup"",""t"":588783},{""key"":"" "",""event"":""keydown"",""t"":588908},{""key"":""e"",""event"":""keyup"",""t"":588909},{""key"":"" "",""event"":""keyup"",""t"":589008},{""key"":""g"",""event"":""keydown"",""t"":589174},{""key"":""g"",""event"":""keyup"",""t"":589258},{""key"":""a"",""event"":""keydown"",""t"":589308},{""key"":""a"",""event"":""keyup"",""t"":589430},{""key"":""m"",""event"":""keydown"",""t"":589430},{""key"":""m"",""event"":""keyup"",""t"":589564},{""key"":""e"",""event"":""keydown"",""t"":589577},{""key"":""e"",""event"":""keyup"",""t"":589658},{""key"":"" "",""event"":""keydown"",""t"":589676},{""key"":"" "",""event"":""keyup"",""t"":589763},{""key"":""a"",""event"":""keydown"",""t"":589824},{""key"":""n"",""event"":""keydown"",""t"":589891},{""key"":""a"",""event"":""keyup"",""t"":589941},{""key"":""n"",""event"":""keyup"",""t"":590007},{""key"":""d"",""event"":""keydown"",""t"":590032},{""key"":"" "",""event"":""keydown"",""t"":590051},{""key"":""d"",""event"":""keyup"",""t"":590143},{""key"":"" "",""event"":""keyup"",""t"":590158},{""key"":""h"",""event"":""keydown"",""t"":590218},{""key"":""h"",""event"":""keyup"",""t"":590317},{""key"":""a"",""event"":""keydown"",""t"":590358},{""key"":""v"",""event"":""keydown"",""t"":590440},{""key"":""a"",""event"":""keyup"",""t"":590451},{""key"":""v"",""event"":""keyup"",""t"":590509},{""key"":""e"",""event"":""keydown"",""t"":590598},{""key"":"" "",""event"":""keydown"",""t"":590615},{""key"":"" "",""event"":""keyup"",""t"":590707},{""key"":""e"",""event"":""keyup"",""t"":590741},{""key"":""n"",""event"":""keydown"",""t"":590808},{""key"":""n"",""event"":""keyup"",""t"":590868},{""key"":""o"",""event"":""keydown"",""t"":590999},{""key"":""o"",""event"":""keyup"",""t"":591108},{""key"":""w"",""event"":""keydown"",""t"":591157},{""key"":"" "",""event"":""keydown"",""t"":591159},{""key"":""w"",""event"":""keyup"",""t"":591240},{""key"":"" "",""event"":""keyup"",""t"":591258},{""key"":""a"",""event"":""keydown"",""t"":591348},{""key"":""y"",""event"":""keydown"",""t"":591407},{""key"":""a"",""event"":""keyup"",""t"":591477},{""key"":""y"",""event"":""keyup"",""t"":591499},{""key"":"" "",""event"":""keydown"",""t"":591591},{""key"":"" "",""event"":""keyup"",""t"":591678},{""key"":""t"",""event"":""keydown"",""t"":591724},{""key"":""o"",""event"":""keydown"",""t"":591794},{""key"":""t"",""event"":""keyup"",""t"":591800},{""key"":""o"",""event"":""keyup"",""t"":591884},{""key"":"" "",""event"":""keydown"",""t"":591931},{""key"":"" "",""event"":""keyup"",""t"":592034},{""key"":""e"",""event"":""keydown"",""t"":592092},{""key"":""e"",""event"":""keyup"",""t"":592181},{""key"":""x"",""event"":""keydown"",""t"":592307},{""key"":""i"",""event"":""keydown"",""t"":592432},{""key"":""x"",""event"":""keyup"",""t"":592448},{""key"":""i"",""event"":""keyup"",""t"":592544},{""key"":""t"",""event"":""keydown"",""t"":592608},{""key"":"" "",""event"":""keydown"",""t"":592691},{""key"":""t"",""event"":""keyup"",""t"":592757},{""key"":"" "",""event"":""keyup"",""t"":592790},{""key"":""i"",""event"":""keydown"",""t"":592891},{""key"":""t"",""event"":""keydown"",""t"":592979},{""key"":""i"",""event"":""keyup"",""t"":592992},{""key"":""t"",""event"":""keyup"",""t"":593066},{""key"":"" "",""event"":""keydown"",""t"":596728},{""key"":"" "",""event"":""keyup"",""t"":596897},{""key"":""ArrowRight"",""event"":""keydown"",""t"":597530},{""key"":""ArrowRight"",""event"":""keyup"",""t"":597574},{""key"":""ArrowRight"",""event"":""keydown"",""t"":597913},{""key"":""ArrowRight"",""event"":""keyup"",""t"":598073},{""key"":""Backspace"",""event"":""keydown"",""t"":598274},{""key"":""Backspace"",""event"":""keyup"",""t"":598406}]","[]"
"467707","","{""creativity-rating"":2,""creativity-free-response"":""the game was quite uncreative as it used generic art and backgrounds and had no story or character to it which i look for in a game, it also had no instructions which makes me think it had not thought put into it"",""originality-rating"":1,""originality-free-response"":""the game felt very unoriginal as it copies other games which have a similar goal of hitting balls to make specific sound tones in a much worse way as there is no instructions so i was very confused on what to hit and there was no way to exit the game, the sound tones also sounded very generic and so did the background art. "",""effectiveness-rating"":1,""effectiveness-free-response"":""this game was very unenjoyable as i was confused on what i needed to do in the game as nothing was explained and after clicking the ball and hitting the rings a few times i managed to progress to the third level where i got completely stuck and had no way to exit the game, this frustrated me as there was no clear cut instructions or hints that could help me progress or even a level skipper "",""authenticity-rating"":1,""attention-check"":3,""intentionality-rating"":1,""authenticity-intentionality-free-response"":""this game felt like it was made by ai as it is very generic, had no story or theme and had little effort put into it as there are no clear instructions or options to go back to a menu to select levels, there is also no progression system or sense of reward which makes me think this was lazily made""}","evaluation-chat-3-orbit","survey","8","1765743","0.0-8.0","5b68c9eb87af310001584803","6987c292780adf01bb926159","69a5f49f9e93e0bdea39b5c5","","","","","","",""
"14702","","{""concept-creativity-rating"":1,""concept-implementation-rating"":3,""question1"":null}","concept-chat-3-orbit","survey","9","1780467","0.0-9.0","5b68c9eb87af310001584803","6987c292780adf01bb926159","69a5f49f9e93e0bdea39b5c5","","","","","","",""
"1985","You have completed your evaluation of the second video game.<br><br>Press any key to proceed to the final game.","m","pre-game-three-message","html-keyboard-response","10","1782455","0.0-10.0","5b68c9eb87af310001584803","6987c292780adf01bb926159","69a5f49f9e93e0bdea39b5c5","","","","","","",""
"193157","","","game-gemini-6-redact","plugin-game-iframe","11","1975648","0.0-11.0","5b68c9eb87af310001584803","6987c292780adf01bb926159","69a5f49f9e93e0bdea39b5c5","emergency-exit","mobile:barrier","{""stage"":""mobile:barrier"",""detail"":{""playerSpeed"":160,""mobilityUnlocked"":true,""fragileWallAlive"":true,""playerX"":100,""playerY"":560}}","null","i have no idea on how to play this game, i am moving bold words but nothing is happening","[{""key"":""m"",""event"":""keyup"",""t"":65},{""key"":""i"",""event"":""keydown"",""t"":164396},{""key"":""i"",""event"":""keyup"",""t"":164505},{""key"":"" "",""event"":""keydown"",""t"":164608},{""key"":"" "",""event"":""keyup"",""t"":164718},{""key"":""h"",""event"":""keydown"",""t"":164879},{""key"":""a"",""event"":""keydown"",""t"":164934},{""key"":""h"",""event"":""keyup"",""t"":164972},{""key"":""a"",""event"":""keyup"",""t"":165090},{""key"":""v"",""event"":""keydown"",""t"":165123},{""key"":""v"",""event"":""keyup"",""t"":165180},{""key"":""e"",""event"":""keydown"",""t"":165241},{""key"":""e"",""event"":""keyup"",""t"":165369},{""key"":"" "",""event"":""keydown"",""t"":165989},{""key"":"" "",""event"":""keyup"",""t"":166092},{""key"":""n"",""event"":""keydown"",""t"":166221},{""key"":""n"",""event"":""keyup"",""t"":166314},{""key"":""o"",""event"":""keydown"",""t"":166444},{""key"":""o"",""event"":""keyup"",""t"":166543},{""key"":"" "",""event"":""keydown"",""t"":166616},{""key"":"" "",""event"":""keyup"",""t"":166704},{""key"":""i"",""event"":""keydown"",""t"":166787},{""key"":""d"",""event"":""keydown"",""t"":166851},{""key"":""i"",""event"":""keyup"",""t"":166899},{""key"":""d"",""event"":""keyup"",""t"":166932},{""key"":""e"",""event"":""keydown"",""t"":167050},{""key"":""e"",""event"":""keyup"",""t"":167127},{""key"":""a"",""event"":""keydown"",""t"":167284},{""key"":""a"",""event"":""keyup"",""t"":167435},{""key"":"" "",""event"":""keydown"",""t"":167512},{""key"":"" "",""event"":""keyup"",""t"":167605},{""key"":""o"",""event"":""keydown"",""t"":167800},{""key"":""o"",""event"":""keyup"",""t"":167871},{""key"":""n"",""event"":""keydown"",""t"":168014},{""key"":""n"",""event"":""keyup"",""t"":168119},{""key"":"" "",""event"":""keydown"",""t"":168219},{""key"":"" "",""event"":""keyup"",""t"":168283},{""key"":""h"",""event"":""keydown"",""t"":168379},{""key"":""h"",""event"":""keyup"",""t"":168484},{""key"":""o"",""event"":""keydown"",""t"":168630},{""key"":""w"",""event"":""keydown"",""t"":168688},{""key"":""o"",""event"":""keyup"",""t"":168742},{""key"":""w"",""event"":""keyup"",""t"":168794},{""key"":"" "",""event"":""keydown"",""t"":168880},{""key"":"" "",""event"":""keyup"",""t"":168996},{""key"":""t"",""event"":""keydown"",""t"":169027},{""key"":""t"",""event"":""keyup"",""t"":169175},{""key"":""o"",""event"":""keydown"",""t"":169225},{""key"":""o"",""event"":""keyup"",""t"":169256},{""key"":"" "",""event"":""keydown"",""t"":169344},{""key"":"" "",""event"":""keyup"",""t"":169424},{""key"":""p"",""event"":""keydown"",""t"":169887},{""key"":""p"",""event"":""keyup"",""t"":169984},{""key"":""l"",""event"":""keydown"",""t"":170101},{""key"":""a"",""event"":""keydown"",""t"":170194},{""key"":""l"",""event"":""keyup"",""t"":170221},{""key"":""a"",""event"":""keyup"",""t"":170344},{""key"":""y"",""event"":""keydown"",""t"":170438},{""key"":""y"",""event"":""keyup"",""t"":170537},{""key"":"" "",""event"":""keydown"",""t"":170604},{""key"":"" "",""event"":""keyup"",""t"":170704},{""key"":""t"",""event"":""keydown"",""t"":170796},{""key"":""h"",""event"":""keydown"",""t"":170829},{""key"":""t"",""event"":""keyup"",""t"":170908},{""key"":""h"",""event"":""keyup"",""t"":170921},{""key"":""i"",""event"":""keydown"",""t"":171037},{""key"":""s"",""event"":""keydown"",""t"":171136},{""key"":""i"",""event"":""keyup"",""t"":171141},{""key"":"" "",""event"":""keydown"",""t"":171257},{""key"":""s"",""event"":""keyup"",""t"":171271},{""key"":"" "",""event"":""keyup"",""t"":171346},{""key"":""g"",""event"":""keydown"",""t"":171520},{""key"":""g"",""event"":""keyup"",""t"":171636},{""key"":""a"",""event"":""keydown"",""t"":171701},{""key"":""m"",""event"":""keydown"",""t"":171824},{""key"":""a"",""event"":""keyup"",""t"":171838},{""key"":""m"",""event"":""keyup"",""t"":171955},{""key"":""e"",""event"":""keydown"",""t"":172021},{""key"":""e"",""event"":""keyup"",""t"":172125},{""key"":"","",""event"":""keydown"",""t"":172533},{""key"":"","",""event"":""keyup"",""t"":172645},{""key"":"" "",""event"":""keydown"",""t"":172795},{""key"":"" "",""event"":""keyup"",""t"":172863},{""key"":""i"",""event"":""keydown"",""t"":172983},{""key"":""i"",""event"":""keyup"",""t"":173092},{""key"":""t"",""event"":""keydown"",""t"":173359},{""key"":""t"",""event"":""keyup"",""t"":173452},{""key"":"" "",""event"":""keydown"",""t"":173551},{""key"":"" "",""event"":""keyup"",""t"":173673},{""key"":""i"",""event"":""keydown"",""t"":173783},{""key"":""s"",""event"":""keydown"",""t"":173870},{""key"":""i"",""event"":""keyup"",""t"":173891},{""key"":"" "",""event"":""keydown"",""t"":173972},{""key"":""s"",""event"":""keyup"",""t"":173994},{""key"":"" "",""event"":""keyup"",""t"":174049},{""key"":""v"",""event"":""keydown"",""t"":174191},{""key"":""v"",""event"":""keyup"",""t"":174290},{""key"":""e"",""event"":""keydown"",""t"":174307},{""key"":""e"",""event"":""keyup"",""t"":174413},{""key"":""r"",""event"":""keydown"",""t"":174518},{""key"":""y"",""event"":""keydown"",""t"":174598},{""key"":""r"",""event"":""keyup"",""t"":174651},{""key"":""y"",""event"":""keyup"",""t"":174697},{""key"":"" "",""event"":""keydown"",""t"":174748},{""key"":"" "",""event"":""keyup"",""t"":174860},{""key"":""Backspace"",""event"":""keydown"",""t"":176495},{""key"":""Backspace"",""event"":""keyup"",""t"":176609},{""key"":""Backspace"",""event"":""keydown"",""t"":176693},{""key"":""Backspace"",""event"":""keydown"",""t"":177194},{""key"":""Backspace"",""event"":""keydown"",""t"":177246},{""key"":""Backspace"",""event"":""keydown"",""t"":177300},{""key"":""Backspace"",""event"":""keydown"",""t"":177349},{""key"":""Backspace"",""event"":""keydown"",""t"":177400},{""key"":""Backspace"",""event"":""keydown"",""t"":177452},{""key"":""Backspace"",""event"":""keydown"",""t"":177503},{""key"":""Backspace"",""event"":""keydown"",""t"":177555},{""key"":""Backspace"",""event"":""keydown"",""t"":177606},{""key"":""Backspace"",""event"":""keydown"",""t"":177658},{""key"":""Backspace"",""event"":""keydown"",""t"":177709},{""key"":""Backspace"",""event"":""keyup"",""t"":177718},{""key"":"","",""event"":""keydown"",""t"":178585},{""key"":"","",""event"":""keyup"",""t"":178697},{""key"":"" "",""event"":""keydown"",""t"":178784},{""key"":"" "",""event"":""keyup"",""t"":178891},{""key"":""i"",""event"":""keydown"",""t"":178978},{""key"":""i"",""event"":""keyup"",""t"":179096},{""key"":"" "",""event"":""keydown"",""t"":179129},{""key"":"" "",""event"":""keyup"",""t"":179231},{""key"":""a"",""event"":""keydown"",""t"":179244},{""key"":""m"",""event"":""keydown"",""t"":179372},{""key"":""a"",""event"":""keyup"",""t"":179395},{""key"":""m"",""event"":""keyup"",""t"":179500},{""key"":"" "",""event"":""keydown"",""t"":179589},{""key"":"" "",""event"":""keyup"",""t"":179680},{""key"":""m"",""event"":""keydown"",""t"":181683},{""key"":""m"",""event"":""keyup"",""t"":181832},{""key"":""v"",""event"":""keydown"",""t"":181916},{""key"":""v"",""event"":""keyup"",""t"":182114},{""key"":""o"",""event"":""keydown"",""t"":182137},{""key"":""o"",""event"":""keyup"",""t"":182256},{""key"":""i"",""event"":""keydown"",""t"":182440},{""key"":""i"",""event"":""keyup"",""t"":182543},{""key"":""n"",""event"":""keydown"",""t"":182659},{""key"":""n"",""event"":""keyup"",""t"":182780},{""key"":""g"",""event"":""keydown"",""t"":182867},{""key"":""g"",""event"":""keyup"",""t"":182952},{""key"":""Backspace"",""event"":""keydown"",""t"":183238},{""key"":""Backspace"",""event"":""keyup"",""t"":183327},{""key"":""Backspace"",""event"":""keydown"",""t"":183430},{""key"":""Backspace"",""event"":""keyup"",""t"":183511},{""key"":""Backspace"",""event"":""keydown"",""t"":183594},{""key"":""Backspace"",""event"":""keyup"",""t"":183678},{""key"":""Backspace"",""event"":""keydown"",""t"":183757},{""key"":""Backspace"",""event"":""keyup"",""t"":183857},{""key"":""Backspace"",""event"":""keydown"",""t"":183927},{""key"":""Backspace"",""event"":""keyup"",""t"":184036},{""key"":""o"",""event"":""keydown"",""t"":184211},{""key"":""o"",""event"":""keyup"",""t"":184355},{""key"":""v"",""event"":""keydown"",""t"":184545},{""key"":""i"",""event"":""keydown"",""t"":184647},{""key"":""v"",""event"":""keyup"",""t"":184649},{""key"":""i"",""event"":""keyup"",""t"":184736},{""key"":""n"",""event"":""keydown"",""t"":184839},{""key"":""n"",""event"":""keyup"",""t"":184969},{""key"":""g"",""event"":""keydown"",""t"":185067},{""key"":""g"",""event"":""keyup"",""t"":185134},{""key"":"" "",""event"":""keydown"",""t"":185151},{""key"":"" "",""event"":""keyup"",""t"":185236},{""key"":""b"",""event"":""keydown"",""t"":185363},{""key"":""b"",""event"":""keyup"",""t"":185424},{""key"":""o"",""event"":""keydown"",""t"":185608},{""key"":""o"",""event"":""keyup"",""t"":185695},{""key"":""l"",""event"":""keydown"",""t"":185825},{""key"":""l"",""event"":""keyup"",""t"":185911},{""key"":""d"",""event"":""keydown"",""t"":185928},{""key"":""d"",""event"":""keyup"",""t"":186017},{""key"":"" "",""event"":""keydown"",""t"":186062},{""key"":"" "",""event"":""keyup"",""t"":186161},{""key"":""w"",""event"":""keydown"",""t"":186480},{""key"":""o"",""event"":""keydown"",""t"":186595},{""key"":""w"",""event"":""keyup"",""t"":186631},{""key"":""o"",""event"":""keyup"",""t"":186695},{""key"":""r"",""event"":""keydown"",""t"":186797},{""key"":""r"",""event"":""keyup"",""t"":186899},{""key"":""d"",""event"":""keydown"",""t"":187014},{""key"":""d"",""event"":""keyup"",""t"":187078},{""key"":""s"",""event"":""keydown"",""t"":187232},{""key"":"" "",""event"":""keydown"",""t"":187347},{""key"":""s"",""event"":""keyup"",""t"":187379},{""key"":"" "",""event"":""keyup"",""t"":187436},{""key"":""b"",""event"":""keydown"",""t"":187568},{""key"":""b"",""event"":""keyup"",""t"":187657},{""key"":""u"",""event"":""keydown"",""t"":187765},{""key"":""u"",""event"":""keyup"",""t"":187877},{""key"":""t"",""event"":""keydown"",""t"":187896},{""key"":""t"",""event"":""keyup"",""t"":188021},{""key"":"" "",""event"":""keydown"",""t"":188056},{""key"":"" "",""event"":""keyup"",""t"":188139},{""key"":""n"",""event"":""keydown"",""t"":188243},{""key"":""n"",""event"":""keyup"",""t"":188326},{""key"":""o"",""event"":""keydown"",""t"":188448},{""key"":""t"",""event"":""keydown"",""t"":188520},{""key"":""o"",""event"":""keyup"",""t"":188552},{""key"":""t"",""event"":""keyup"",""t"":188666},{""key"":""h"",""event"":""keydown"",""t"":188686},{""key"":""h"",""event"":""keyup"",""t"":188746},{""key"":""i"",""event"":""keydown"",""t"":188856},{""key"":""i"",""event"":""keyup"",""t"":188934},{""key"":""n"",""event"":""keydown"",""t"":189041},{""key"":""g"",""event"":""keydown"",""t"":189060},{""key"":""n"",""event"":""keyup"",""t"":189150},{""key"":""g"",""event"":""keyup"",""t"":189175},{""key"":"" "",""event"":""keydown"",""t"":189211},{""key"":"" "",""event"":""keyup"",""t"":189284},{""key"":""i"",""event"":""keydown"",""t"":189345},{""key"":""s"",""event"":""keydown"",""t"":189441},{""key"":""i"",""event"":""keyup"",""t"":189442},{""key"":"" "",""event"":""keydown"",""t"":189515},{""key"":""s"",""event"":""keyup"",""t"":189537},{""key"":"" "",""event"":""keyup"",""t"":189595},{""key"":""h"",""event"":""keydown"",""t"":189679},{""key"":""h"",""event"":""keyup"",""t"":189768},{""key"":""a"",""event"":""keydown"",""t"":189770},{""key"":""a"",""event"":""keyup"",""t"":189893},{""key"":""p"",""event"":""keydown"",""t"":189944},{""key"":""p"",""event"":""keyup"",""t"":190002},{""key"":""p"",""event"":""keydown"",""t"":190115},{""key"":""p"",""event"":""keyup"",""t"":190204},{""key"":""e"",""event"":""keydown"",""t"":190271},{""key"":""n"",""event"":""keydown"",""t"":190380},{""key"":""e"",""event"":""keyup"",""t"":190399},{""key"":""n"",""event"":""keyup"",""t"":190444},{""key"":""i"",""event"":""keydown"",""t"":190569},{""key"":""i"",""event"":""keyup"",""t"":190658},{""key"":""n"",""event"":""keydown"",""t"":190763},{""key"":""n"",""event"":""keyup"",""t"":190843},{""key"":""g"",""event"":""keydown"",""t"":190888},{""key"":""g"",""event"":""keyup"",""t"":191022}]","[]"
"457327","","{""creativity-rating"":4,""creativity-free-response"":""the game was quite creative as it was a puzzle based on words that needed to be moved so a wall could come down and the blob could escape, i found this concept very creative and original and i could imagine each level getting more progressively difficulty therefore requiring a creative mind to solve this "",""originality-rating"":4,""originality-free-response"":""the game felt quite original and novel as i have never played anything like this before, the simple black and white colour tones made it stand out and so did the simple story of having to escape and what caused me surprise was that i couldn't solve the first level and i found the game to be very difficult "",""effectiveness-rating"":2,""effectiveness-free-response"":""what didn't work for me was that i found the game to be very difficult due to not being able to solve the first puzzle and with the instructions lacking as i moved the bold words but nothing was happening, it would have been nice to have a hint system. "",""authenticity-rating"":4,""attention-check"":3,""intentionality-rating"":4,""authenticity-intentionality-free-response"":""i felt like some thought and effort was put into this as there is a puzzle to solve on each level that with enough concentration can be solved, the art design was lacking a bit and same with the instructions but the overall functionality was good and i can imagine each level having a harder puzzle which makes me think that effort was put into this.""}","evaluation-gemini-6-redact","survey","12","2433006","0.0-12.0","5b68c9eb87af310001584803","6987c292780adf01bb926159","69a5f49f9e93e0bdea39b5c5","","","","","","",""
"10247","","{""concept-creativity-rating"":4,""concept-implementation-rating"":3,""question1"":null}","concept-gemini-6-redact","survey","13","2443273","0.0-13.0","5b68c9eb87af310001584803","6987c292780adf01bb926159","69a5f49f9e93e0bdea39b5c5","","","","","","",""
"1634","You have completed all of the games!<br><br>Press any key to proceed to some final questions before returning to Prolific.","n","pre-baseline-questions","html-keyboard-response","14","2444909","0.0-14.0","5b68c9eb87af310001584803","6987c292780adf01bb926159","69a5f49f9e93e0bdea39b5c5","","","","","","",""
"9640","","{""baseline_originality_rating"":4,""baseline_effectiveness_rating"":3,""baseline_authenticity_rating"":4,""baseline_intentionality_rating"":4}","baseline-questions-rating","survey","15","2454571","0.0-15.0","5b68c9eb87af310001584803","6987c292780adf01bb926159","69a5f49f9e93e0bdea39b5c5","","","","","","",""
"49468","","{""ai_aware_question"":""yes as i believed ai generated games to be lesser as they dont have a human touch so i voted accordingly based on this ""}","ai-aware-question","survey","16","2504051","0.0-16.0","5b68c9eb87af310001584803","6987c292780adf01bb926159","69a5f49f9e93e0bdea39b5c5","","","","","","",""
"11916","
        <p> You have completed the experiment! Press any key to save your data and get redirected back to Prolific. <strong>Please do not close the page until you have been redirected to Prolific.</strong> <p>
      ","m","goodbye","html-keyboard-response","17","2515968","0.0-17.0","5b68c9eb87af310001584803","6987c292780adf01bb926159","69a5f49f9e93e0bdea39b5c5","","","","","","",""
