"rt","stimulus","response","phase","trial_type","trial_index","time_elapsed","internal_node_id","prolific_subject_id","study_id","session_id","exit_reason","exit_stage","exit_progress","game_data","emergency_text","keystrokes","mouse_events"
"670533","Welcome! In this study, you will play three short video games, completing a short survey after each game.<br><br>Please make sure you are in a quiet environment where you can focus for the duration of the study. Some games may use sound, so please ensure that your device's volume is not muted.<br><br>Press any key to begin."," ","welcome-message","html-keyboard-response","0","670537","0.0-0.0","5d1f5c20aaa27b001954de31","6987c292780adf01bb926159","69a61e4a0bd93f7b79c16bef","","","","","","",""
"18894","","{""commitment-check"":[""yes""]}","commitment-check","survey","1","689458","0.0-1.0","5d1f5c20aaa27b001954de31","6987c292780adf01bb926159","69a61e4a0bd93f7b79c16bef","","","","","","",""
"9469","Press any key to proceed to the first video game. Should you encounter a game-breaking bug, please report the issue in the Menu tab to the right of the screen."," ","pre-game-one-message","html-keyboard-response","2","698928","0.0-2.0","5d1f5c20aaa27b001954de31","6987c292780adf01bb926159","69a61e4a0bd93f7b79c16bef","","","","","","",""
"384360","","","game-chat-6-tidepainter","plugin-game-iframe","3","1083296","0.0-3.0","5d1f5c20aaa27b001954de31","6987c292780adf01bb926159","69a61e4a0bd93f7b79c16bef","game-complete","end:success","{""stage"":""end:success"",""detail"":{""success"":true,""shellsFilled"":3,""wavesUsed"":11}}","{""result"":""win"",""shellsFilled"":3,""wavesUsed"":11}","null","[{""key"":"" "",""event"":""keyup"",""t"":86},{""key"":""5"",""event"":""keydown"",""t"":81750},{""key"":""5"",""event"":""keyup"",""t"":81864},{""key"":""5"",""event"":""keydown"",""t"":81926},{""key"":""5"",""event"":""keyup"",""t"":82032}]","[]"
"177256","","{""creativity-rating"":4,""creativity-free-response"":""it was creative because i had a sense of freedom where i would put my blocks to move the balls and where to mix my balls for the right colour"",""originality-rating"":3,""originality-free-response"":""it had old 2d vibes and it was looking unique of the patterns and the concept"",""effectiveness-rating"":3,""effectiveness-free-response"":""it was nice playing it but it was a bit frustrating without help to figure it out."",""authenticity-rating"":3,""attention-check"":3,""intentionality-rating"":4,""authenticity-intentionality-free-response"":""it was looking unique of the playstyle especially the concept of drawing wherever i wanted so it was authentic and you could tell there was personal effort for it to become playable""}","evaluation-chat-6-tidepainter","survey","4","1260583","0.0-4.0","5d1f5c20aaa27b001954de31","6987c292780adf01bb926159","69a61e4a0bd93f7b79c16bef","","","","","","",""
"36126","","{""concept-creativity-rating"":2,""concept-implementation-rating"":2,""question1"":null}","concept-chat-6-tidepainter","survey","5","1296719","0.0-5.0","5d1f5c20aaa27b001954de31","6987c292780adf01bb926159","69a61e4a0bd93f7b79c16bef","","","","","","",""
"4288","You have completed your evaluation of the first video game.<br><br>Press any key to proceed to the second game."," ","pre-game-two-message","html-keyboard-response","6","1301008","0.0-6.0","5d1f5c20aaa27b001954de31","6987c292780adf01bb926159","69a61e4a0bd93f7b79c16bef","","","","","","",""
"342924","","","game-claude-5-cartographer","plugin-game-iframe","7","1643937","0.0-7.0","5d1f5c20aaa27b001954de31","6987c292780adf01bb926159","69a61e4a0bd93f7b79c16bef","game-complete","phase:results (land 0%)","{""stage"":""phase:results (land 0%)"",""detail"":{""gamePhase"":""results"",""landSaved"":0,""landPercent"":0,""elapsedTime"":300.0058499997928,""citiesAlive"":0,""ink"":100}}","{""result"":""complete"",""landPercent"":0,""citiesSurviving"":0,""peopleSaved"":1400}","null","[{""key"":"" "",""event"":""keyup"",""t"":65},{""key"":"" "",""event"":""keydown"",""t"":274055},{""key"":"" "",""event"":""keyup"",""t"":274338},{""key"":"" "",""event"":""keydown"",""t"":274452},{""key"":"" "",""event"":""keyup"",""t"":274572},{""key"":"" "",""event"":""keydown"",""t"":274674},{""key"":"" "",""event"":""keyup"",""t"":274775},{""key"":""i"",""event"":""keydown"",""t"":299289},{""key"":""i"",""event"":""keyup"",""t"":299443},{""key"":"" "",""event"":""keydown"",""t"":299444},{""key"":"" "",""event"":""keyup"",""t"":299585},{""key"":""l"",""event"":""keydown"",""t"":299646},{""key"":""l"",""event"":""keyup"",""t"":299732},{""key"":""o"",""event"":""keydown"",""t"":299853},{""key"":""o"",""event"":""keyup"",""t"":299934},{""key"":""s"",""event"":""keydown"",""t"":299935},{""key"":""s"",""event"":""keyup"",""t"":300029},{""key"":""t"",""event"":""keydown"",""t"":300144},{""key"":"" "",""event"":""keydown"",""t"":300225},{""key"":""t"",""event"":""keyup"",""t"":300265},{""key"":"" "",""event"":""keyup"",""t"":300353},{""key"":""a"",""event"":""keydown"",""t"":300709},{""key"":""a"",""event"":""keyup"",""t"":300824},{""key"":""l"",""event"":""keydown"",""t"":300905},{""key"":""l"",""event"":""keyup"",""t"":301039},{""key"":""l"",""event"":""keydown"",""t"":301154},{""key"":""l"",""event"":""keyup"",""t"":301221},{""key"":"" "",""event"":""keydown"",""t"":301497},{""key"":"" "",""event"":""keyup"",""t"":301632},{""key"":""c"",""event"":""keydown"",""t"":301915},{""key"":""i"",""event"":""keydown"",""t"":302016},{""key"":""c"",""event"":""keyup"",""t"":302042},{""key"":""i"",""event"":""keyup"",""t"":302210},{""key"":""t"",""event"":""keydown"",""t"":302284},{""key"":""i"",""event"":""keydown"",""t"":302379},{""key"":""t"",""event"":""keyup"",""t"":302412},{""key"":""i"",""event"":""keyup"",""t"":302494},{""key"":""e"",""event"":""keydown"",""t"":302494},{""key"":""e"",""event"":""keyup"",""t"":302588},{""key"":""s"",""event"":""keydown"",""t"":302702},{""key"":"" "",""event"":""keydown"",""t"":302810},{""key"":""s"",""event"":""keyup"",""t"":302865},{""key"":"" "",""event"":""keyup"",""t"":302958},{""key"":""n"",""event"":""keydown"",""t"":303006},{""key"":""a"",""event"":""keydown"",""t"":303046},{""key"":""n"",""event"":""keyup"",""t"":303127},{""key"":""a"",""event"":""keyup"",""t"":303200},{""key"":""Backspace"",""event"":""keydown"",""t"":303692},{""key"":""Backspace"",""event"":""keyup"",""t"":303786},{""key"":""Backspace"",""event"":""keydown"",""t"":303907},{""key"":""Backspace"",""event"":""keyup"",""t"":304022},{""key"":""Backspace"",""event"":""keydown"",""t"":304157},{""key"":""Backspace"",""event"":""keyup"",""t"":304265},{""key"":"" "",""event"":""keydown"",""t"":304621},{""key"":"" "",""event"":""keyup"",""t"":304776},{""key"":""a"",""event"":""keydown"",""t"":304904},{""key"":""n"",""event"":""keydown"",""t"":305039},{""key"":""a"",""event"":""keyup"",""t"":305079},{""key"":""n"",""event"":""keyup"",""t"":305167},{""key"":""d"",""event"":""keydown"",""t"":305186},{""key"":""d"",""event"":""keyup"",""t"":305322},{""key"":""Escape"",""event"":""keydown"",""t"":306729},{""key"":""Escape"",""event"":""keyup"",""t"":306810},{""key"":""Enter"",""event"":""keydown"",""t"":342920}]","[]"
"156421","","{""creativity-rating"":4,""creativity-free-response"":""it had a nice feeling of protecting somehow the peopel"",""originality-rating"":2,""originality-free-response"":""the idea isnt that original but the gameplay was unique especially how to protect and that the mist is coming"",""effectiveness-rating"":3,""effectiveness-free-response"":""it was enjoyable because you had the feeling of helping the people and be fast about your decisions but i think after 2 3 games it would be kinda boring if it was only this"",""authenticity-rating"":2,""attention-check"":3,""intentionality-rating"":4,""authenticity-intentionality-free-response"":""it wasnt that unique of an idea but the game was enjoyable and had its own standing and effort. ""}","evaluation-claude-5-cartographer","survey","8","1800372","0.0-8.0","5d1f5c20aaa27b001954de31","6987c292780adf01bb926159","69a61e4a0bd93f7b79c16bef","","","","","","",""
"31332","","{""concept-creativity-rating"":2,""concept-implementation-rating"":4,""question1"":null}","concept-claude-5-cartographer","survey","9","1831713","0.0-9.0","5d1f5c20aaa27b001954de31","6987c292780adf01bb926159","69a61e4a0bd93f7b79c16bef","","","","","","",""
"3756","You have completed your evaluation of the second video game.<br><br>Press any key to proceed to the final game."," ","pre-game-three-message","html-keyboard-response","10","1835470","0.0-10.0","5d1f5c20aaa27b001954de31","6987c292780adf01bb926159","69a61e4a0bd93f7b79c16bef","","","","","","",""
"33977","","","game-gemini-1-static","plugin-game-iframe","11","1869450","0.0-11.0","5d1f5c20aaa27b001954de31","6987c292780adf01bb926159","69a61e4a0bd93f7b79c16bef","game-complete","completed","{""stage"":""completed"",""detail"":{""signalHealth"":9,""playerDistance"":0,""p1ToGoal"":0,""p2ToGoal"":0,""avgToGoal"":0}}","{""result"":""win"",""signalHealth"":9.079899996757776}","null","[{""key"":"" "",""event"":""keyup"",""t"":93},{""key"":""d"",""event"":""keydown"",""t"":14587},{""key"":""d"",""event"":""keyup"",""t"":15052},{""key"":""ArrowLeft"",""event"":""keydown"",""t"":15799},{""key"":""ArrowLeft"",""event"":""keyup"",""t"":16303},{""key"":""w"",""event"":""keydown"",""t"":16863},{""key"":""w"",""event"":""keyup"",""t"":16923},{""key"":""w"",""event"":""keydown"",""t"":18194},{""key"":""ArrowUp"",""event"":""keydown"",""t"":18248},{""key"":""a"",""event"":""keydown"",""t"":18700},{""key"":""w"",""event"":""keyup"",""t"":18895},{""key"":""ArrowUp"",""event"":""keyup"",""t"":19050},{""key"":""a"",""event"":""keyup"",""t"":19090},{""key"":""ArrowUp"",""event"":""keydown"",""t"":19992},{""key"":""ArrowRight"",""event"":""keydown"",""t"":20282},{""key"":""ArrowRight"",""event"":""keyup"",""t"":20302},{""key"":""ArrowUp"",""event"":""keyup"",""t"":20658},{""key"":""ArrowUp"",""event"":""keydown"",""t"":21177},{""key"":""ArrowRight"",""event"":""keydown"",""t"":21427},{""key"":""ArrowUp"",""event"":""keyup"",""t"":21871},{""key"":""ArrowRight"",""event"":""keyup"",""t"":21871},{""key"":""w"",""event"":""keydown"",""t"":22720},{""key"":""ArrowUp"",""event"":""keydown"",""t"":22720},{""key"":""w"",""event"":""keyup"",""t"":23184},{""key"":""ArrowUp"",""event"":""keyup"",""t"":23184},{""key"":""d"",""event"":""keydown"",""t"":23372},{""key"":""ArrowLeft"",""event"":""keydown"",""t"":23446},{""key"":""d"",""event"":""keyup"",""t"":23930},{""key"":""ArrowLeft"",""event"":""keyup"",""t"":23978},{""key"":""ArrowUp"",""event"":""keydown"",""t"":24880},{""key"":""ArrowUp"",""event"":""keydown"",""t"":25392},{""key"":""ArrowUp"",""event"":""keydown"",""t"":25423},{""key"":""ArrowUp"",""event"":""keydown"",""t"":25453},{""key"":""ArrowUp"",""event"":""keydown"",""t"":25485},{""key"":""ArrowUp"",""event"":""keyup"",""t"":25512},{""key"":""ArrowRight"",""event"":""keydown"",""t"":25532},{""key"":""ArrowRight"",""event"":""keyup"",""t"":25788},{""key"":""ArrowUp"",""event"":""keydown"",""t"":26051},{""key"":""ArrowLeft"",""event"":""keydown"",""t"":26326},{""key"":""ArrowUp"",""event"":""keyup"",""t"":26387},{""key"":""ArrowLeft"",""event"":""keyup"",""t"":26616},{""key"":""ArrowLeft"",""event"":""keydown"",""t"":27135},{""key"":""ArrowLeft"",""event"":""keyup"",""t"":27371},{""key"":""w"",""event"":""keydown"",""t"":27795},{""key"":""ArrowUp"",""event"":""keydown"",""t"":27795},{""key"":""d"",""event"":""keydown"",""t"":28078},{""key"":""ArrowLeft"",""event"":""keydown"",""t"":28078},{""key"":""d"",""event"":""keyup"",""t"":28258},{""key"":""w"",""event"":""keyup"",""t"":28300},{""key"":""ArrowUp"",""event"":""keyup"",""t"":28300},{""key"":""ArrowLeft"",""event"":""keyup"",""t"":28300},{""key"":""d"",""event"":""keydown"",""t"":28630},{""key"":""ArrowLeft"",""event"":""keydown"",""t"":28717},{""key"":""d"",""event"":""keyup"",""t"":28763},{""key"":""ArrowLeft"",""event"":""keyup"",""t"":28832},{""key"":""w"",""event"":""keydown"",""t"":29485},{""key"":""ArrowUp"",""event"":""keydown"",""t"":29511},{""key"":""d"",""event"":""keydown"",""t"":29747},{""key"":""ArrowLeft"",""event"":""keydown"",""t"":29854},{""key"":""w"",""event"":""keyup"",""t"":29895},{""key"":""ArrowUp"",""event"":""keyup"",""t"":29896},{""key"":""d"",""event"":""keyup"",""t"":29896},{""key"":""ArrowLeft"",""event"":""keyup"",""t"":29896},{""key"":""Enter"",""event"":""keydown"",""t"":33973}]","[]"
"170269","","{""creativity-rating"":4,""creativity-free-response"":""intresting approach especially using both arrow keys and wasd which most of the case is one or the other"",""originality-rating"":3,""originality-free-response"":""it was unique and with good vibes and you had to think both of your movements to be precise. nothing from a surprise it was solid from the start"",""effectiveness-rating"":4,""effectiveness-free-response"":""it was pretty fun and i would want more content of it.it wasnt frustrating at all, it could be for harder levels i suppose"",""authenticity-rating"":3,""attention-check"":3,""intentionality-rating"":4,""authenticity-intentionality-free-response"":""it was a solid try and kinda unique approach,  i could see the producer touch in this game and his effort trying to build this ""}","evaluation-gemini-1-static","survey","12","2039732","0.0-12.0","5d1f5c20aaa27b001954de31","6987c292780adf01bb926159","69a61e4a0bd93f7b79c16bef","","","","","","",""
"23069","","{""concept-implementation-rating"":5,""concept-creativity-rating"":2,""question1"":null}","concept-gemini-1-static","survey","13","2062812","0.0-13.0","5d1f5c20aaa27b001954de31","6987c292780adf01bb926159","69a61e4a0bd93f7b79c16bef","","","","","","",""
"2760","You have completed all of the games!<br><br>Press any key to proceed to some final questions before returning to Prolific."," ","pre-baseline-questions","html-keyboard-response","14","2065572","0.0-14.0","5d1f5c20aaa27b001954de31","6987c292780adf01bb926159","69a61e4a0bd93f7b79c16bef","","","","","","",""
"20589","","{""baseline_originality_rating"":4,""baseline_effectiveness_rating"":5,""baseline_authenticity_rating"":5,""baseline_intentionality_rating"":5}","baseline-questions-rating","survey","15","2086173","0.0-15.0","5d1f5c20aaa27b001954de31","6987c292780adf01bb926159","69a61e4a0bd93f7b79c16bef","","","","","","",""
"55709","","{""ai_blind_question"":""yes, i could imagine the effort behind building a game from scratch and to programm it to be without errors so that was a bit of a disappointment. ""}","ai-blind-question","survey","16","2141887","0.0-16.0","5d1f5c20aaa27b001954de31","6987c292780adf01bb926159","69a61e4a0bd93f7b79c16bef","","","","","","",""
"5764","
        <p> You have completed the experiment! Press any key to save your data and get redirected back to Prolific. <strong>Please do not close the page until you have been redirected to Prolific.</strong> <p>
      "," ","goodbye","html-keyboard-response","17","2147651","0.0-17.0","5d1f5c20aaa27b001954de31","6987c292780adf01bb926159","69a61e4a0bd93f7b79c16bef","","","","","","",""
