"rt","stimulus","response","phase","trial_type","trial_index","time_elapsed","internal_node_id","prolific_subject_id","study_id","session_id","exit_reason","game_data","emergency_text","keystrokes","mouse_events"
"9955","Welcome! In this study, you will play three short video games, completing a short survey after each game.<br><br>Please make sure you are in a quiet environment where you can focus for the duration of the study. Some games may use sound, so please ensure that your device's volume is not muted.<br><br>Press any key to begin."," ","welcome-message","html-keyboard-response","0","9983","0.0-0.0","60da6f47359a9fc411cc8313","6987c292780adf01bb926159","69a1ee4c96a4873693219260","","","","",""
"7910","","{""commitment-check"":[""yes""]}","commitment-check","survey","1","17973","0.0-1.0","60da6f47359a9fc411cc8313","6987c292780adf01bb926159","69a1ee4c96a4873693219260","","","","",""
"1792","Press any key to proceed to the first video game."," ","pre-game-one-message","html-keyboard-response","2","19765","0.0-2.0","60da6f47359a9fc411cc8313","6987c292780adf01bb926159","69a1ee4c96a4873693219260","","","","",""
"688366","","","game-chat-2-murmuration","plugin-game-iframe","3","708130","0.0-3.0","60da6f47359a9fc411cc8313","6987c292780adf01bb926159","69a1ee4c96a4873693219260","game-complete","{""result"":""win"",""birdsAlive"":33,""timeRemaining"":124.13991333333166}","null","[{""key"":"" "",""event"":""keyup"",""t"":205},{""key"":"" "",""event"":""keydown"",""t"":21084},{""key"":"" "",""event"":""keyup"",""t"":21211},{""key"":""q"",""event"":""keydown"",""t"":21579},{""key"":""q"",""event"":""keyup"",""t"":21731},{""key"":""e"",""event"":""keydown"",""t"":22019},{""key"":""e"",""event"":""keyup"",""t"":22248},{""key"":""q"",""event"":""keydown"",""t"":22507},{""key"":""q"",""event"":""keyup"",""t"":22584},{""key"":""s"",""event"":""keydown"",""t"":23115},{""key"":""s"",""event"":""keyup"",""t"":23481},{""key"":""q"",""event"":""keydown"",""t"":26645},{""key"":""q"",""event"":""keyup"",""t"":27114},{""key"":""e"",""event"":""keydown"",""t"":27304},{""key"":""e"",""event"":""keyup"",""t"":27541},{""key"":""d"",""event"":""keydown"",""t"":27881},{""key"":""d"",""event"":""keydown"",""t"":28382},{""key"":""d"",""event"":""keydown"",""t"":28466},{""key"":""d"",""event"":""keydown"",""t"":28548},{""key"":""d"",""event"":""keyup"",""t"":28550},{""key"":""d"",""event"":""keydown"",""t"":28759},{""key"":""d"",""event"":""keyup"",""t"":28904},{""key"":""d"",""event"":""keydown"",""t"":29245},{""key"":""d"",""event"":""keyup"",""t"":29362},{""key"":""d"",""event"":""keydown"",""t"":29445},{""key"":""d"",""event"":""keyup"",""t"":29577},{""key"":""d"",""event"":""keydown"",""t"":29676},{""key"":""d"",""event"":""keyup"",""t"":29786},{""key"":""d"",""event"":""keydown"",""t"":29891},{""key"":""d"",""event"":""keyup"",""t"":30010},{""key"":""d"",""event"":""keydown"",""t"":30125},{""key"":""d"",""event"":""keyup"",""t"":30238},{""key"":""d"",""event"":""keydown"",""t"":30691},{""key"":""d"",""event"":""keyup"",""t"":30808},{""key"":""q"",""event"":""keydown"",""t"":37407},{""key"":""q"",""event"":""keyup"",""t"":37511},{""key"":""q"",""event"":""keydown"",""t"":37659},{""key"":""q"",""event"":""keyup"",""t"":37755},{""key"":""e"",""event"":""keydown"",""t"":39572},{""key"":""e"",""event"":""keyup"",""t"":39638},{""key"":""e"",""event"":""keydown"",""t"":39732},{""key"":""e"",""event"":""keyup"",""t"":39836},{""key"":""e"",""event"":""keydown"",""t"":39938},{""key"":""e"",""event"":""keyup"",""t"":40028},{""key"":""e"",""event"":""keydown"",""t"":40131},{""key"":""e"",""event"":""keyup"",""t"":40225},{""key"":""e"",""event"":""keydown"",""t"":40316},{""key"":""e"",""event"":""keyup"",""t"":40408},{""key"":""e"",""event"":""keydown"",""t"":40515},{""key"":""e"",""event"":""keyup"",""t"":40592},{""key"":""e"",""event"":""keydown"",""t"":40723},{""key"":""e"",""event"":""keyup"",""t"":40823},{""key"":""e"",""event"":""keydown"",""t"":40919},{""key"":""e"",""event"":""keyup"",""t"":41019},{""key"":""e"",""event"":""keydown"",""t"":41104},{""key"":""e"",""event"":""keyup"",""t"":41206},{""key"":""e"",""event"":""keydown"",""t"":41294},{""key"":""e"",""event"":""keyup"",""t"":41402},{""key"":""e"",""event"":""keydown"",""t"":41492},{""key"":""e"",""event"":""keyup"",""t"":41605},{""key"":""e"",""event"":""keydown"",""t"":41711},{""key"":""e"",""event"":""keyup"",""t"":41833},{""key"":""e"",""event"":""keydown"",""t"":41949},{""key"":""e"",""event"":""keyup"",""t"":42067},{""key"":""e"",""event"":""keydown"",""t"":42183},{""key"":""e"",""event"":""keyup"",""t"":42316},{""key"":""e"",""event"":""keydown"",""t"":42455},{""key"":""e"",""event"":""keyup"",""t"":42571},{""key"":""e"",""event"":""keydown"",""t"":42852},{""key"":""e"",""event"":""keyup"",""t"":42972},{""key"":""e"",""event"":""keydown"",""t"":43087},{""key"":""e"",""event"":""keyup"",""t"":43192},{""key"":""e"",""event"":""keydown"",""t"":43460},{""key"":""e"",""event"":""keyup"",""t"":43581},{""key"":""e"",""event"":""keydown"",""t"":44340},{""key"":""e"",""event"":""keyup"",""t"":44448},{""key"":""q"",""event"":""keydown"",""t"":103452},{""key"":""q"",""event"":""keydown"",""t"":103952},{""key"":""q"",""event"":""keydown"",""t"":104034},{""key"":""q"",""event"":""keydown"",""t"":104119},{""key"":""q"",""event"":""keydown"",""t"":104201},{""key"":""q"",""event"":""keydown"",""t"":104286},{""key"":""q"",""event"":""keydown"",""t"":104368},{""key"":""q"",""event"":""keydown"",""t"":104451},{""key"":""q"",""event"":""keydown"",""t"":104540},{""key"":""q"",""event"":""keydown"",""t"":104623},{""key"":""q"",""event"":""keydown"",""t"":104708},{""key"":""q"",""event"":""keydown"",""t"":104789},{""key"":""q"",""event"":""keydown"",""t"":104870},{""key"":""q"",""event"":""keydown"",""t"":104956},{""key"":""q"",""event"":""keydown"",""t"":105040},{""key"":""q"",""event"":""keydown"",""t"":105123},{""key"":""q"",""event"":""keydown"",""t"":105204},{""key"":""q"",""event"":""keyup"",""t"":105256},{""key"":""q"",""event"":""keydown"",""t"":105359},{""key"":""q"",""event"":""keyup"",""t"":105458},{""key"":""q"",""event"":""keydown"",""t"":105535},{""key"":""q"",""event"":""keyup"",""t"":105623},{""key"":""q"",""event"":""keydown"",""t"":105709},{""key"":""q"",""event"":""keyup"",""t"":105794},{""key"":""q"",""event"":""keydown"",""t"":105868},{""key"":""q"",""event"":""keyup"",""t"":105973},{""key"":""q"",""event"":""keydown"",""t"":105997},{""key"":""q"",""event"":""keyup"",""t"":106110},{""key"":""q"",""event"":""keydown"",""t"":106201},{""key"":""q"",""event"":""keyup"",""t"":106295},{""key"":""q"",""event"":""keydown"",""t"":106369},{""key"":""q"",""event"":""keyup"",""t"":106473},{""key"":""q"",""event"":""keydown"",""t"":106563},{""key"":""q"",""event"":""keyup"",""t"":106691},{""key"":""q"",""event"":""keydown"",""t"":106776},{""key"":""q"",""event"":""keyup"",""t"":106877},{""key"":""q"",""event"":""keydown"",""t"":106974},{""key"":""q"",""event"":""keyup"",""t"":107076},{""key"":""q"",""event"":""keydown"",""t"":107174},{""key"":""q"",""event"":""keyup"",""t"":107277},{""key"":""q"",""event"":""keydown"",""t"":107393},{""key"":""q"",""event"":""keyup"",""t"":107500},{""key"":""q"",""event"":""keydown"",""t"":107595},{""key"":""q"",""event"":""keyup"",""t"":107717},{""key"":""q"",""event"":""keydown"",""t"":107815},{""key"":""q"",""event"":""keyup"",""t"":107923},{""key"":""r"",""event"":""keydown"",""t"":111410},{""key"":""r"",""event"":""keyup"",""t"":111522},{""key"":"" "",""event"":""keydown"",""t"":117790},{""key"":"" "",""event"":""keyup"",""t"":117919},{""key"":""e"",""event"":""keydown"",""t"":122049},{""key"":""e"",""event"":""keyup"",""t"":122163},{""key"":""e"",""event"":""keydown"",""t"":122277},{""key"":""e"",""event"":""keyup"",""t"":122373},{""key"":""e"",""event"":""keydown"",""t"":122491},{""key"":""e"",""event"":""keyup"",""t"":122581},{""key"":""e"",""event"":""keydown"",""t"":122707},{""key"":""e"",""event"":""keyup"",""t"":122811},{""key"":""e"",""event"":""keydown"",""t"":122973},{""key"":""e"",""event"":""keyup"",""t"":123040},{""key"":""e"",""event"":""keydown"",""t"":123816},{""key"":""e"",""event"":""keyup"",""t"":123907},{""key"":""e"",""event"":""keydown"",""t"":124097},{""key"":""e"",""event"":""keyup"",""t"":124190},{""key"":""a"",""event"":""keydown"",""t"":129212},{""key"":""a"",""event"":""keyup"",""t"":129327},{""key"":""a"",""event"":""keydown"",""t"":129432},{""key"":""a"",""event"":""keyup"",""t"":129536},{""key"":""a"",""event"":""keydown"",""t"":130510},{""key"":""a"",""event"":""keyup"",""t"":130558},{""key"":""a"",""event"":""keydown"",""t"":130727},{""key"":""a"",""event"":""keyup"",""t"":130791},{""key"":""a"",""event"":""keydown"",""t"":131209},{""key"":""a"",""event"":""keyup"",""t"":131279},{""key"":""a"",""event"":""keydown"",""t"":131446},{""key"":""a"",""event"":""keyup"",""t"":131563},{""key"":""a"",""event"":""keydown"",""t"":166505},{""key"":""a"",""event"":""keyup"",""t"":166582},{""key"":""d"",""event"":""keydown"",""t"":167012},{""key"":""d"",""event"":""keyup"",""t"":167107},{""key"":""d"",""event"":""keydown"",""t"":167187},{""key"":""d"",""event"":""keyup"",""t"":167293},{""key"":""d"",""event"":""keydown"",""t"":167398},{""key"":""d"",""event"":""keyup"",""t"":167476},{""key"":""a"",""event"":""keydown"",""t"":178062},{""key"":""a"",""event"":""keyup"",""t"":178203},{""key"":""d"",""event"":""keydown"",""t"":178767},{""key"":""d"",""event"":""keyup"",""t"":178918},{""key"":""e"",""event"":""keydown"",""t"":182483},{""key"":""e"",""event"":""keyup"",""t"":182584},{""key"":""e"",""event"":""keydown"",""t"":182731},{""key"":""e"",""event"":""keyup"",""t"":182852},{""key"":""e"",""event"":""keydown"",""t"":183015},{""key"":""e"",""event"":""keyup"",""t"":183143},{""key"":""e"",""event"":""keydown"",""t"":184595},{""key"":""e"",""event"":""keyup"",""t"":184734},{""key"":""e"",""event"":""keydown"",""t"":184908},{""key"":""e"",""event"":""keyup"",""t"":185034},{""key"":""e"",""event"":""keydown"",""t"":185299},{""key"":""e"",""event"":""keyup"",""t"":185442},{""key"":""r"",""event"":""keydown"",""t"":194120},{""key"":""r"",""event"":""keyup"",""t"":194177},{""key"":"" "",""event"":""keydown"",""t"":198085},{""key"":"" "",""event"":""keyup"",""t"":198243},{""key"":""a"",""event"":""keydown"",""t"":262878},{""key"":""a"",""event"":""keydown"",""t"":263379},{""key"":""a"",""event"":""keydown"",""t"":263462},{""key"":""a"",""event"":""keydown"",""t"":263546},{""key"":""a"",""event"":""keydown"",""t"":263628},{""key"":""a"",""event"":""keydown"",""t"":263712},{""key"":""a"",""event"":""keydown"",""t"":263795},{""key"":""a"",""event"":""keydown"",""t"":263880},{""key"":""a"",""event"":""keydown"",""t"":263963},{""key"":""a"",""event"":""keyup"",""t"":264001},{""key"":""a"",""event"":""keydown"",""t"":264130},{""key"":""a"",""event"":""keyup"",""t"":264220},{""key"":""a"",""event"":""keydown"",""t"":264315},{""key"":""a"",""event"":""keyup"",""t"":264411},{""key"":""a"",""event"":""keydown"",""t"":264492},{""key"":""a"",""event"":""keyup"",""t"":264588},{""key"":""a"",""event"":""keydown"",""t"":264630},{""key"":""a"",""event"":""keyup"",""t"":264776},{""key"":""a"",""event"":""keydown"",""t"":264869},{""key"":""a"",""event"":""keyup"",""t"":264970},{""key"":""a"",""event"":""keydown"",""t"":265104},{""key"":""a"",""event"":""keyup"",""t"":265199},{""key"":""a"",""event"":""keydown"",""t"":265341},{""key"":""a"",""event"":""keyup"",""t"":265481},{""key"":""a"",""event"":""keydown"",""t"":265838},{""key"":""a"",""event"":""keyup"",""t"":265942},{""key"":""a"",""event"":""keydown"",""t"":266104},{""key"":""a"",""event"":""keyup"",""t"":266195},{""key"":""q"",""event"":""keydown"",""t"":309641},{""key"":""q"",""event"":""keydown"",""t"":310140},{""key"":""q"",""event"":""keydown"",""t"":310223},{""key"":""q"",""event"":""keydown"",""t"":310307},{""key"":""q"",""event"":""keydown"",""t"":310391},{""key"":""q"",""event"":""keydown"",""t"":310474},{""key"":""q"",""event"":""keydown"",""t"":310556},{""key"":""q"",""event"":""keydown"",""t"":310641},{""key"":""q"",""event"":""keydown"",""t"":310723},{""key"":""q"",""event"":""keydown"",""t"":310806},{""key"":""q"",""event"":""keydown"",""t"":310890},{""key"":""q"",""event"":""keydown"",""t"":310973},{""key"":""q"",""event"":""keydown"",""t"":311057},{""key"":""q"",""event"":""keydown"",""t"":311139},{""key"":""q"",""event"":""keydown"",""t"":311223},{""key"":""q"",""event"":""keydown"",""t"":311307},{""key"":""q"",""event"":""keydown"",""t"":311388},{""key"":""q"",""event"":""keydown"",""t"":311473},{""key"":""q"",""event"":""keyup"",""t"":311495},{""key"":""q"",""event"":""keydown"",""t"":312290},{""key"":""q"",""event"":""keyup"",""t"":312395},{""key"":""e"",""event"":""keydown"",""t"":313141},{""key"":""e"",""event"":""keyup"",""t"":313238},{""key"":""e"",""event"":""keydown"",""t"":313348},{""key"":""e"",""event"":""keyup"",""t"":313422},{""key"":""e"",""event"":""keydown"",""t"":313533},{""key"":""e"",""event"":""keyup"",""t"":313619},{""key"":""e"",""event"":""keydown"",""t"":313778},{""key"":""e"",""event"":""keyup"",""t"":313848},{""key"":""e"",""event"":""keydown"",""t"":313998},{""key"":""e"",""event"":""keyup"",""t"":314096},{""key"":""e"",""event"":""keydown"",""t"":314263},{""key"":""e"",""event"":""keyup"",""t"":314358},{""key"":""e"",""event"":""keydown"",""t"":314469},{""key"":""e"",""event"":""keyup"",""t"":314560},{""key"":""e"",""event"":""keydown"",""t"":314672},{""key"":""e"",""event"":""keyup"",""t"":314765},{""key"":""e"",""event"":""keydown"",""t"":314913},{""key"":""e"",""event"":""keyup"",""t"":314985},{""key"":""e"",""event"":""keydown"",""t"":315100},{""key"":""e"",""event"":""keyup"",""t"":315193},{""key"":""e"",""event"":""keydown"",""t"":315342},{""key"":""e"",""event"":""keyup"",""t"":315437},{""key"":""e"",""event"":""keydown"",""t"":315567},{""key"":""e"",""event"":""keyup"",""t"":315668},{""key"":""e"",""event"":""keydown"",""t"":315788},{""key"":""e"",""event"":""keyup"",""t"":315891},{""key"":""e"",""event"":""keydown"",""t"":316027},{""key"":""e"",""event"":""keyup"",""t"":316137},{""key"":""e"",""event"":""keydown"",""t"":316791},{""key"":""e"",""event"":""keyup"",""t"":316919},{""key"":""e"",""event"":""keydown"",""t"":317087},{""key"":""e"",""event"":""keyup"",""t"":317201},{""key"":""e"",""event"":""keydown"",""t"":317820},{""key"":""e"",""event"":""keyup"",""t"":317943},{""key"":""e"",""event"":""keydown"",""t"":318198},{""key"":""e"",""event"":""keyup"",""t"":318318},{""key"":""a"",""event"":""keydown"",""t"":321778},{""key"":""a"",""event"":""keyup"",""t"":321876},{""key"":""d"",""event"":""keydown"",""t"":322403},{""key"":""d"",""event"":""keyup"",""t"":322492},{""key"":""d"",""event"":""keydown"",""t"":322586},{""key"":""d"",""event"":""keyup"",""t"":322653},{""key"":""d"",""event"":""keydown"",""t"":322760},{""key"":""d"",""event"":""keyup"",""t"":322827},{""key"":""d"",""event"":""keydown"",""t"":322914},{""key"":""d"",""event"":""keyup"",""t"":323003},{""key"":""d"",""event"":""keydown"",""t"":323085},{""key"":""d"",""event"":""keyup"",""t"":323180},{""key"":""d"",""event"":""keydown"",""t"":323265},{""key"":""d"",""event"":""keyup"",""t"":323351},{""key"":""d"",""event"":""keydown"",""t"":323446},{""key"":""d"",""event"":""keyup"",""t"":323529},{""key"":""d"",""event"":""keydown"",""t"":323632},{""key"":""d"",""event"":""keyup"",""t"":323721},{""key"":""d"",""event"":""keydown"",""t"":323817},{""key"":""d"",""event"":""keyup"",""t"":323921},{""key"":""d"",""event"":""keydown"",""t"":324025},{""key"":""d"",""event"":""keyup"",""t"":324115},{""key"":""d"",""event"":""keydown"",""t"":324233},{""key"":""d"",""event"":""keyup"",""t"":324325},{""key"":""d"",""event"":""keydown"",""t"":324423},{""key"":""d"",""event"":""keyup"",""t"":324534},{""key"":""d"",""event"":""keydown"",""t"":324626},{""key"":""d"",""event"":""keyup"",""t"":324733},{""key"":""d"",""event"":""keydown"",""t"":324819},{""key"":""d"",""event"":""keyup"",""t"":324934},{""key"":""d"",""event"":""keydown"",""t"":325026},{""key"":""d"",""event"":""keyup"",""t"":325137},{""key"":""d"",""event"":""keydown"",""t"":325216},{""key"":""d"",""event"":""keyup"",""t"":325316},{""key"":""d"",""event"":""keydown"",""t"":325406},{""key"":""d"",""event"":""keyup"",""t"":325514},{""key"":""d"",""event"":""keydown"",""t"":325608},{""key"":""d"",""event"":""keyup"",""t"":325701},{""key"":""d"",""event"":""keydown"",""t"":325899},{""key"":""d"",""event"":""keyup"",""t"":325915},{""key"":""d"",""event"":""keydown"",""t"":326004},{""key"":""d"",""event"":""keyup"",""t"":326262},{""key"":""q"",""event"":""keydown"",""t"":416456},{""key"":""q"",""event"":""keyup"",""t"":416589},{""key"":""q"",""event"":""keydown"",""t"":416657},{""key"":""q"",""event"":""keyup"",""t"":416791},{""key"":""q"",""event"":""keydown"",""t"":416857},{""key"":""q"",""event"":""keydown"",""t"":417358},{""key"":""q"",""event"":""keydown"",""t"":417440},{""key"":""q"",""event"":""keydown"",""t"":417524},{""key"":""q"",""event"":""keydown"",""t"":417607},{""key"":""q"",""event"":""keydown"",""t"":417691},{""key"":""q"",""event"":""keydown"",""t"":417774},{""key"":""q"",""event"":""keydown"",""t"":417857},{""key"":""q"",""event"":""keydown"",""t"":417940},{""key"":""q"",""event"":""keydown"",""t"":418023},{""key"":""q"",""event"":""keyup"",""t"":418035},{""key"":""q"",""event"":""keydown"",""t"":418144},{""key"":""q"",""event"":""keyup"",""t"":418219},{""key"":""q"",""event"":""keydown"",""t"":418337},{""key"":""q"",""event"":""keyup"",""t"":418389},{""key"":""q"",""event"":""keydown"",""t"":418490},{""key"":""q"",""event"":""keyup"",""t"":418597},{""key"":""q"",""event"":""keydown"",""t"":418670},{""key"":""q"",""event"":""keyup"",""t"":418757},{""key"":""q"",""event"":""keydown"",""t"":418851},{""key"":""q"",""event"":""keyup"",""t"":418937},{""key"":""q"",""event"":""keydown"",""t"":419041},{""key"":""q"",""event"":""keyup"",""t"":419120},{""key"":""q"",""event"":""keydown"",""t"":419219},{""key"":""q"",""event"":""keyup"",""t"":419307},{""key"":""q"",""event"":""keydown"",""t"":419402},{""key"":""q"",""event"":""keyup"",""t"":419495},{""key"":""q"",""event"":""keydown"",""t"":419579},{""key"":""q"",""event"":""keyup"",""t"":419673},{""key"":""q"",""event"":""keydown"",""t"":419774},{""key"":""q"",""event"":""keyup"",""t"":419873},{""key"":""q"",""event"":""keydown"",""t"":419972},{""key"":""q"",""event"":""keyup"",""t"":420069},{""key"":""q"",""event"":""keydown"",""t"":420167},{""key"":""q"",""event"":""keyup"",""t"":420269},{""key"":""q"",""event"":""keydown"",""t"":420368},{""key"":""q"",""event"":""keyup"",""t"":420482},{""key"":""q"",""event"":""keydown"",""t"":420575},{""key"":""q"",""event"":""keyup"",""t"":420683},{""key"":""q"",""event"":""keydown"",""t"":420772},{""key"":""q"",""event"":""keyup"",""t"":420883},{""key"":""q"",""event"":""keydown"",""t"":420975},{""key"":""q"",""event"":""keyup"",""t"":421087},{""key"":""q"",""event"":""keydown"",""t"":421176},{""key"":""q"",""event"":""keyup"",""t"":421282},{""key"":""q"",""event"":""keydown"",""t"":421359},{""key"":""q"",""event"":""keyup"",""t"":421463},{""key"":""q"",""event"":""keydown"",""t"":421560},{""key"":""q"",""event"":""keyup"",""t"":421675},{""key"":""a"",""event"":""keydown"",""t"":421989},{""key"":""a"",""event"":""keyup"",""t"":422063},{""key"":""a"",""event"":""keydown"",""t"":422175},{""key"":""a"",""event"":""keyup"",""t"":422275},{""key"":""a"",""event"":""keydown"",""t"":422372},{""key"":""a"",""event"":""keyup"",""t"":422463},{""key"":""a"",""event"":""keydown"",""t"":422559},{""key"":""a"",""event"":""keyup"",""t"":422658},{""key"":""a"",""event"":""keydown"",""t"":422755},{""key"":""a"",""event"":""keyup"",""t"":422847},{""key"":""a"",""event"":""keydown"",""t"":422946},{""key"":""a"",""event"":""keyup"",""t"":423043},{""key"":""a"",""event"":""keydown"",""t"":423122},{""key"":""a"",""event"":""keyup"",""t"":423229},{""key"":""a"",""event"":""keydown"",""t"":423333},{""key"":""a"",""event"":""keyup"",""t"":423448},{""key"":""a"",""event"":""keydown"",""t"":423529},{""key"":""a"",""event"":""keyup"",""t"":423643},{""key"":""a"",""event"":""keydown"",""t"":423731},{""key"":""a"",""event"":""keyup"",""t"":423827},{""key"":""a"",""event"":""keydown"",""t"":423933},{""key"":""a"",""event"":""keyup"",""t"":424018},{""key"":""a"",""event"":""keydown"",""t"":424128},{""key"":""a"",""event"":""keyup"",""t"":424216},{""key"":""a"",""event"":""keydown"",""t"":424329},{""key"":""a"",""event"":""keyup"",""t"":424410},{""key"":""a"",""event"":""keydown"",""t"":424513},{""key"":""a"",""event"":""keyup"",""t"":424609},{""key"":""a"",""event"":""keydown"",""t"":424706},{""key"":""a"",""event"":""keyup"",""t"":424793},{""key"":""a"",""event"":""keydown"",""t"":424893},{""key"":""a"",""event"":""keyup"",""t"":424961},{""key"":""a"",""event"":""keydown"",""t"":425066},{""key"":""a"",""event"":""keyup"",""t"":425164},{""key"":""a"",""event"":""keydown"",""t"":425283},{""key"":""a"",""event"":""keyup"",""t"":425371},{""key"":""a"",""event"":""keydown"",""t"":425471},{""key"":""a"",""event"":""keyup"",""t"":425627},{""key"":""e"",""event"":""keydown"",""t"":476987},{""key"":""e"",""event"":""keyup"",""t"":477112},{""key"":""e"",""event"":""keydown"",""t"":477231},{""key"":""e"",""event"":""keyup"",""t"":477329},{""key"":""e"",""event"":""keydown"",""t"":477397},{""key"":""e"",""event"":""keyup"",""t"":477546},{""key"":""e"",""event"":""keydown"",""t"":477630},{""key"":""e"",""event"":""keyup"",""t"":477708},{""key"":""e"",""event"":""keydown"",""t"":477810},{""key"":""e"",""event"":""keyup"",""t"":477930},{""key"":""e"",""event"":""keydown"",""t"":478029},{""key"":""e"",""event"":""keyup"",""t"":478126},{""key"":""e"",""event"":""keydown"",""t"":478211},{""key"":""e"",""event"":""keyup"",""t"":478315},{""key"":""e"",""event"":""keydown"",""t"":478419},{""key"":""e"",""event"":""keyup"",""t"":478525},{""key"":""e"",""event"":""keydown"",""t"":478799},{""key"":""e"",""event"":""keyup"",""t"":478887},{""key"":""e"",""event"":""keydown"",""t"":478979},{""key"":""e"",""event"":""keyup"",""t"":479078},{""key"":""e"",""event"":""keydown"",""t"":479179},{""key"":""e"",""event"":""keyup"",""t"":479271},{""key"":""e"",""event"":""keydown"",""t"":479364},{""key"":""e"",""event"":""keyup"",""t"":479475},{""key"":""e"",""event"":""keydown"",""t"":479570},{""key"":""e"",""event"":""keyup"",""t"":479660},{""key"":""e"",""event"":""keydown"",""t"":479753},{""key"":""e"",""event"":""keyup"",""t"":479847},{""key"":""e"",""event"":""keydown"",""t"":479947},{""key"":""e"",""event"":""keyup"",""t"":480031},{""key"":""e"",""event"":""keydown"",""t"":480131},{""key"":""e"",""event"":""keyup"",""t"":480211},{""key"":""e"",""event"":""keydown"",""t"":480306},{""key"":""e"",""event"":""keyup"",""t"":480395},{""key"":""e"",""event"":""keydown"",""t"":480507},{""key"":""e"",""event"":""keyup"",""t"":480585},{""key"":""e"",""event"":""keydown"",""t"":480696},{""key"":""e"",""event"":""keyup"",""t"":480779},{""key"":""e"",""event"":""keydown"",""t"":480900},{""key"":""e"",""event"":""keyup"",""t"":480969},{""key"":""e"",""event"":""keydown"",""t"":481078},{""key"":""e"",""event"":""keyup"",""t"":481178},{""key"":""d"",""event"":""keydown"",""t"":481348},{""key"":""d"",""event"":""keyup"",""t"":481445},{""key"":""d"",""event"":""keydown"",""t"":481529},{""key"":""d"",""event"":""keyup"",""t"":481628},{""key"":""d"",""event"":""keydown"",""t"":481732},{""key"":""d"",""event"":""keyup"",""t"":481797},{""key"":""d"",""event"":""keydown"",""t"":481893},{""key"":""d"",""event"":""keyup"",""t"":481991},{""key"":""d"",""event"":""keydown"",""t"":482079},{""key"":""d"",""event"":""keyup"",""t"":482172},{""key"":""d"",""event"":""keydown"",""t"":482262},{""key"":""d"",""event"":""keyup"",""t"":482366},{""key"":""d"",""event"":""keydown"",""t"":482485},{""key"":""d"",""event"":""keyup"",""t"":482578},{""key"":""d"",""event"":""keydown"",""t"":482695},{""key"":""d"",""event"":""keyup"",""t"":482801},{""key"":""d"",""event"":""keydown"",""t"":482905},{""key"":""d"",""event"":""keyup"",""t"":483022},{""key"":""d"",""event"":""keydown"",""t"":483085},{""key"":""d"",""event"":""keyup"",""t"":483206},{""key"":""d"",""event"":""keydown"",""t"":483315},{""key"":""d"",""event"":""keyup"",""t"":483414},{""key"":""d"",""event"":""keydown"",""t"":483523},{""key"":""d"",""event"":""keyup"",""t"":483611},{""key"":""d"",""event"":""keydown"",""t"":483731},{""key"":""d"",""event"":""keyup"",""t"":483815},{""key"":""d"",""event"":""keydown"",""t"":483922},{""key"":""d"",""event"":""keyup"",""t"":484017},{""key"":""d"",""event"":""keydown"",""t"":484123},{""key"":""d"",""event"":""keyup"",""t"":484211},{""key"":""d"",""event"":""keydown"",""t"":484324},{""key"":""d"",""event"":""keyup"",""t"":484388},{""key"":""d"",""event"":""keydown"",""t"":484498},{""key"":""d"",""event"":""keyup"",""t"":484623},{""key"":""r"",""event"":""keydown"",""t"":502486},{""key"":""r"",""event"":""keyup"",""t"":502584},{""key"":"" "",""event"":""keydown"",""t"":507294},{""key"":"" "",""event"":""keyup"",""t"":507410},{""key"":""e"",""event"":""keydown"",""t"":510626},{""key"":""e"",""event"":""keydown"",""t"":511127},{""key"":""e"",""event"":""keydown"",""t"":511210},{""key"":""e"",""event"":""keydown"",""t"":511296},{""key"":""e"",""event"":""keydown"",""t"":511380},{""key"":""e"",""event"":""keydown"",""t"":511463},{""key"":""e"",""event"":""keyup"",""t"":511509},{""key"":""e"",""event"":""keydown"",""t"":511659},{""key"":""e"",""event"":""keyup"",""t"":511732},{""key"":""e"",""event"":""keydown"",""t"":511844},{""key"":""e"",""event"":""keyup"",""t"":511900},{""key"":""e"",""event"":""keydown"",""t"":512013},{""key"":""e"",""event"":""keyup"",""t"":512074},{""key"":""e"",""event"":""keydown"",""t"":512173},{""key"":""e"",""event"":""keyup"",""t"":512271},{""key"":""e"",""event"":""keydown"",""t"":512350},{""key"":""e"",""event"":""keyup"",""t"":512459},{""key"":""e"",""event"":""keydown"",""t"":512550},{""key"":""e"",""event"":""keyup"",""t"":512662},{""key"":""e"",""event"":""keydown"",""t"":512753},{""key"":""e"",""event"":""keyup"",""t"":512857},{""key"":""e"",""event"":""keydown"",""t"":512950},{""key"":""e"",""event"":""keyup"",""t"":513057},{""key"":""e"",""event"":""keydown"",""t"":513139},{""key"":""e"",""event"":""keyup"",""t"":513232},{""key"":""e"",""event"":""keydown"",""t"":513332},{""key"":""e"",""event"":""keyup"",""t"":513431},{""key"":""e"",""event"":""keydown"",""t"":513538},{""key"":""e"",""event"":""keyup"",""t"":513630},{""key"":""e"",""event"":""keydown"",""t"":513733},{""key"":""e"",""event"":""keyup"",""t"":513825},{""key"":""e"",""event"":""keydown"",""t"":513914},{""key"":""e"",""event"":""keyup"",""t"":514003},{""key"":""e"",""event"":""keydown"",""t"":514074},{""key"":""e"",""event"":""keyup"",""t"":514188},{""key"":""d"",""event"":""keydown"",""t"":514320},{""key"":""d"",""event"":""keyup"",""t"":514423},{""key"":""d"",""event"":""keydown"",""t"":514521},{""key"":""d"",""event"":""keyup"",""t"":514601},{""key"":""d"",""event"":""keydown"",""t"":514693},{""key"":""d"",""event"":""keyup"",""t"":514787},{""key"":""d"",""event"":""keydown"",""t"":514885},{""key"":""d"",""event"":""keyup"",""t"":514978},{""key"":""d"",""event"":""keydown"",""t"":515080},{""key"":""d"",""event"":""keyup"",""t"":515181},{""key"":""d"",""event"":""keydown"",""t"":515288},{""key"":""d"",""event"":""keyup"",""t"":515381},{""key"":""d"",""event"":""keydown"",""t"":515514},{""key"":""d"",""event"":""keyup"",""t"":515607},{""key"":""d"",""event"":""keydown"",""t"":515714},{""key"":""d"",""event"":""keyup"",""t"":515821},{""key"":""d"",""event"":""keydown"",""t"":515981},{""key"":""d"",""event"":""keyup"",""t"":516085},{""key"":""d"",""event"":""keydown"",""t"":516223},{""key"":""d"",""event"":""keyup"",""t"":516330},{""key"":""d"",""event"":""keydown"",""t"":516437},{""key"":""d"",""event"":""keyup"",""t"":516550},{""key"":""d"",""event"":""keydown"",""t"":516663},{""key"":""d"",""event"":""keyup"",""t"":516774},{""key"":""d"",""event"":""keydown"",""t"":516905},{""key"":""d"",""event"":""keyup"",""t"":517020},{""key"":""d"",""event"":""keydown"",""t"":517146},{""key"":""d"",""event"":""keyup"",""t"":517236},{""key"":""Enter"",""event"":""keydown"",""t"":688361}]","[]"
"237687","","{""creativity-rating"":3,""creativity-free-response"":""The art style is simplistic, but the goal of the game is fun. Games where you lead people/creatures are nothing new but the element of wind in this one provided a fun challenge"",""originality-rating"":2,""originality-free-response"":""The art style was just simple shapes, which made it kind of unaesthetic"",""effectiveness-rating"":3,""effectiveness-free-response"":""The wind part was fun and challenging but the overall pace of the game is a bit too slow and frustrating"",""authenticity-rating"":4,""attention-check"":3,""intentionality-rating"":2,""authenticity-intentionality-free-response"":""I feel like the game could've been much better if more time was put into it, especially in the art section""}","evaluation-chat-2-murmuration","survey","4","945878","0.0-4.0","60da6f47359a9fc411cc8313","6987c292780adf01bb926159","69a1ee4c96a4873693219260","","","","",""
"22406","","{""concept-creativity-rating"":4,""concept-implementation-rating"":4,""question1"":null}","concept-chat-2-murmuration","survey","5","968309","0.0-5.0","60da6f47359a9fc411cc8313","6987c292780adf01bb926159","69a1ee4c96a4873693219260","","","","",""
"2050","You have completed your evaluation of the first video game.<br><br>Press any key to proceed to the second game."," ","pre-game-two-message","html-keyboard-response","6","970360","0.0-6.0","60da6f47359a9fc411cc8313","6987c292780adf01bb926159","69a1ee4c96a4873693219260","","","","",""
"325486","","","game-chat-6-tidepainter","plugin-game-iframe","7","1295939","0.0-7.0","60da6f47359a9fc411cc8313","6987c292780adf01bb926159","69a1ee4c96a4873693219260","game-complete","{""result"":""win"",""shellsFilled"":3,""wavesUsed"":11}","null","[{""key"":"" "",""event"":""keyup"",""t"":84}]","[]"
"100786","","{""creativity-rating"":4,""creativity-free-response"":""It is a fun puzzle concept I havn't seen before"",""originality-rating"":4,""originality-free-response"":""The time limit and wave limit made it intense trying to figure out the optimal path"",""effectiveness-rating"":4,""effectiveness-free-response"":""I enjoy puzzles and challenging games. Trying ti figure out the right path and way the waves travel was enjoyable"",""authenticity-rating"":5,""attention-check"":3,""intentionality-rating"":5,""authenticity-intentionality-free-response"":""The puzzle feels original and intentional.""}","evaluation-chat-6-tidepainter","survey","8","1396798","0.0-8.0","60da6f47359a9fc411cc8313","6987c292780adf01bb926159","69a1ee4c96a4873693219260","","","","",""
"20247","","{""concept-creativity-rating"":5,""concept-implementation-rating"":4,""question1"":null}","concept-chat-6-tidepainter","survey","9","1417069","0.0-9.0","60da6f47359a9fc411cc8313","6987c292780adf01bb926159","69a1ee4c96a4873693219260","","","","",""
"986","You have completed your evaluation of the second video game.<br><br>Press any key to proceed to the final game."," ","pre-game-three-message","html-keyboard-response","10","1418057","0.0-10.0","60da6f47359a9fc411cc8313","6987c292780adf01bb926159","69a1ee4c96a4873693219260","","","","",""
"28596","","","game-gemini-3-suture","plugin-game-iframe","11","1446664","0.0-11.0","60da6f47359a9fc411cc8313","6987c292780adf01bb926159","69a1ee4c96a4873693219260","game-complete","{""result"":""win"",""levelsCompleted"":30}","null","[{""key"":"" "",""event"":""keyup"",""t"":477},{""key"":""ArrowRight"",""event"":""keydown"",""t"":14084},{""key"":""ArrowRight"",""event"":""keyup"",""t"":14300},{""key"":"" "",""event"":""keydown"",""t"":14467},{""key"":"" "",""event"":""keyup"",""t"":14799},{""key"":"" "",""event"":""keydown"",""t"":15694},{""key"":"" "",""event"":""keyup"",""t"":15863},{""key"":""ArrowUp"",""event"":""keydown"",""t"":16468},{""key"":""ArrowUp"",""event"":""keyup"",""t"":16566},{""key"":""ArrowRight"",""event"":""keydown"",""t"":16930},{""key"":""ArrowRight"",""event"":""keyup"",""t"":17091},{""key"":""ArrowRight"",""event"":""keydown"",""t"":17457},{""key"":""ArrowRight"",""event"":""keyup"",""t"":17580},{""key"":""ArrowRight"",""event"":""keydown"",""t"":19471},{""key"":""ArrowUp"",""event"":""keydown"",""t"":19792},{""key"":""ArrowUp"",""event"":""keydown"",""t"":20294},{""key"":""ArrowUp"",""event"":""keydown"",""t"":20377},{""key"":""ArrowUp"",""event"":""keydown"",""t"":20461},{""key"":""ArrowUp"",""event"":""keydown"",""t"":20545},{""key"":""ArrowUp"",""event"":""keydown"",""t"":20628},{""key"":""ArrowUp"",""event"":""keydown"",""t"":20711},{""key"":""ArrowUp"",""event"":""keydown"",""t"":20797},{""key"":""ArrowUp"",""event"":""keydown"",""t"":20877},{""key"":""ArrowUp"",""event"":""keyup"",""t"":20930},{""key"":""ArrowUp"",""event"":""keydown"",""t"":21393},{""key"":""ArrowUp"",""event"":""keyup"",""t"":21686},{""key"":""ArrowUp"",""event"":""keydown"",""t"":21812},{""key"":""ArrowUp"",""event"":""keyup"",""t"":22007},{""key"":""ArrowRight"",""event"":""keyup"",""t"":23470},{""key"":""ArrowUp"",""event"":""keydown"",""t"":23687},{""key"":""ArrowUp"",""event"":""keyup"",""t"":23854},{""key"":""ArrowLeft"",""event"":""keydown"",""t"":24207},{""key"":""ArrowLeft"",""event"":""keyup"",""t"":24309},{""key"":""ArrowLeft"",""event"":""keydown"",""t"":26127},{""key"":""ArrowLeft"",""event"":""keyup"",""t"":26279},{""key"":""Enter"",""event"":""keydown"",""t"":28590}]","[]"
"102099","","{""creativity-rating"":1,""creativity-free-response"":""It was a very simple platformer with no creative features"",""originality-rating"":2,""originality-free-response"":""The cutting part of the game did nothing, it was a simple 2d platformer which felt very unoriginal"",""effectiveness-rating"":2,""effectiveness-free-response"":""It was a very basic game, not much effort has to be put in while playing"",""authenticity-rating"":2,""attention-check"":3,""intentionality-rating"":1,""authenticity-intentionality-free-response"":""The game had an unfinished feel like it was missing a majority of it""}","evaluation-gemini-3-suture","survey","12","1548800","0.0-12.0","60da6f47359a9fc411cc8313","6987c292780adf01bb926159","69a1ee4c96a4873693219260","","","","",""
"17443","","{""concept-creativity-rating"":4,""concept-implementation-rating"":1,""question1"":null}","concept-gemini-3-suture","survey","13","1566263","0.0-13.0","60da6f47359a9fc411cc8313","6987c292780adf01bb926159","69a1ee4c96a4873693219260","","","","",""
"2371","You have completed all of the games!<br><br>Press any key to proceed to some final questions before returning to Prolific."," ","pre-baseline-questions","html-keyboard-response","14","1568635","0.0-14.0","60da6f47359a9fc411cc8313","6987c292780adf01bb926159","69a1ee4c96a4873693219260","","","","",""
"11676","","{""baseline_originality_rating"":4,""baseline_effectiveness_rating"":5,""baseline_authenticity_rating"":5,""baseline_intentionality_rating"":5}","baseline-questions-rating","survey","15","1580339","0.0-15.0","60da6f47359a9fc411cc8313","6987c292780adf01bb926159","69a1ee4c96a4873693219260","","","","",""
"61987","","{""ai_blind_question"":""I probably would not answer any questions differently.""}","ai-blind-question","survey","16","1642339","0.0-16.0","60da6f47359a9fc411cc8313","6987c292780adf01bb926159","69a1ee4c96a4873693219260","","","","",""
"1970","
        <p> You have completed the experiment! Press any key to save your data and get redirected back to Prolific. <strong>Please do not close the page until you have been redirected to Prolific.</strong> <p>
      "," ","goodbye","html-keyboard-response","17","1644314","0.0-17.0","60da6f47359a9fc411cc8313","6987c292780adf01bb926159","69a1ee4c96a4873693219260","","","","",""
