"rt","stimulus","response","phase","trial_type","trial_index","time_elapsed","internal_node_id","prolific_subject_id","study_id","session_id","exit_reason","game_data","emergency_text","keystrokes","mouse_events"
"42839","Welcome!<br><br>In this study, you will play three short video games that were generated by Artificial Intelligence (AI) and complete a short survey after each game.<br><br>Please make sure you are in a quiet environment where you can focus for the duration of the study. Some games may use sound, so please ensure that your device's volume is not muted.<br><br>Press any key to begin.","enter","welcome-message","html-keyboard-response","0","42852","0.0-0.0","69129a44e90ae61a87c472fd","6987c292780adf01bb926159","69a123b7c84f963e7490bd88","","","","",""
"21763","","{""commitment-check"":[""yes""]}","commitment-check","survey","1","64713","0.0-1.0","69129a44e90ae61a87c472fd","6987c292780adf01bb926159","69a123b7c84f963e7490bd88","","","","",""
"3134","Press any key to proceed to the first video game.","enter","pre-game-one-message","html-keyboard-response","2","67848","0.0-2.0","69129a44e90ae61a87c472fd","6987c292780adf01bb926159","69a123b7c84f963e7490bd88","","","","",""
"280203","","","game-claude-6-flame","plugin-game-iframe","3","348094","0.0-3.0","69129a44e90ae61a87c472fd","6987c292780adf01bb926159","69a123b7c84f963e7490bd88","game-complete","{""result"":""win"",""distance"":6169.338041152537}","null","[{""key"":""Enter"",""event"":""keyup"",""t"":70},{""key"":""w"",""event"":""keydown"",""t"":62785},{""key"":""w"",""event"":""keydown"",""t"":63293},{""key"":""w"",""event"":""keydown"",""t"":63325},{""key"":""w"",""event"":""keyup"",""t"":63335},{""key"":""d"",""event"":""keydown"",""t"":63390},{""key"":""d"",""event"":""keyup"",""t"":63549},{""key"":""ArrowUp"",""event"":""keydown"",""t"":141870},{""key"":""ArrowUp"",""event"":""keyup"",""t"":142206},{""key"":""ArrowUp"",""event"":""keydown"",""t"":142525},{""key"":""ArrowUp"",""event"":""keydown"",""t"":143036},{""key"":""ArrowUp"",""event"":""keydown"",""t"":143068},{""key"":""ArrowUp"",""event"":""keydown"",""t"":143102},{""key"":""ArrowUp"",""event"":""keydown"",""t"":143134},{""key"":""ArrowUp"",""event"":""keydown"",""t"":143160},{""key"":""ArrowUp"",""event"":""keydown"",""t"":143192},{""key"":""ArrowLeft"",""event"":""keydown"",""t"":143222},{""key"":""ArrowUp"",""event"":""keyup"",""t"":143365},{""key"":""ArrowLeft"",""event"":""keyup"",""t"":143637},{""key"":""s"",""event"":""keydown"",""t"":144070},{""key"":""a"",""event"":""keydown"",""t"":144077},{""key"":""a"",""event"":""keyup"",""t"":144319},{""key"":""s"",""event"":""keyup"",""t"":144389},{""key"":""Enter"",""event"":""keydown"",""t"":280183}]","[]"
"726083","","{""creativity-rating"":3,""creativity-free-response"":""I don't know 100% what the game was about, but after a while it seemed to be something about overcoming obstacles and reaching the final destination. It was a little fun to control and “show” the way to the end of the course."",""originality-rating"":3,""originality-free-response"":""The game was quite simple and practical, with a defined objective and not much to do. Its appearance is somewhat reminiscent of classic old point-and-click games."",""effectiveness-rating"":4,""effectiveness-free-response"":""I like simple games that don't involve too many mysteries, so I enjoyed playing this game. I would say it's a good pastime. The game seems to have worked as it should, and the commands mostly seem to have been obeyed."",""authenticity-rating"":2,""attention-check"":3,""intentionality-rating"":4,""authenticity-intentionality-free-response"":""The game is authentic, although many games (especially older ones) use the same mechanics and style of play. I believe that the game was created by its creator to be exactly that way, demonstrating his intention and effort.""}","evaluation-claude-6-flame","survey","4","1074277","0.0-4.0","69129a44e90ae61a87c472fd","6987c292780adf01bb926159","69a123b7c84f963e7490bd88","","","","",""
"89210","","{""concept-creativity-rating"":5,""concept-implementation-rating"":4,""question1"":null}","concept-claude-6-flame","survey","5","1163539","0.0-5.0","69129a44e90ae61a87c472fd","6987c292780adf01bb926159","69a123b7c84f963e7490bd88","","","","",""
"6100","You have completed your evaluation of the first video game.<br><br>Press any key to proceed to the second game.","enter","pre-game-two-message","html-keyboard-response","6","1169641","0.0-6.0","69129a44e90ae61a87c472fd","6987c292780adf01bb926159","69a123b7c84f963e7490bd88","","","","",""
"112098","","","game-gemini-6-redact","plugin-game-iframe","7","1281777","0.0-7.0","69129a44e90ae61a87c472fd","6987c292780adf01bb926159","69a123b7c84f963e7490bd88","game-complete","{""result"":""win""}","null","[{""key"":""Enter"",""event"":""keyup"",""t"":62},{""key"":""Enter"",""event"":""keydown"",""t"":22834},{""key"":""Enter"",""event"":""keyup"",""t"":22877},{""key"":""ArrowDown"",""event"":""keydown"",""t"":24454},{""key"":""ArrowDown"",""event"":""keyup"",""t"":24632},{""key"":""ArrowUp"",""event"":""keydown"",""t"":25110},{""key"":""ArrowUp"",""event"":""keyup"",""t"":25277},{""key"":""ArrowUp"",""event"":""keydown"",""t"":26822},{""key"":""ArrowUp"",""event"":""keydown"",""t"":27334},{""key"":""ArrowUp"",""event"":""keydown"",""t"":27366},{""key"":""ArrowUp"",""event"":""keydown"",""t"":27394},{""key"":""ArrowUp"",""event"":""keydown"",""t"":27425},{""key"":""ArrowUp"",""event"":""keydown"",""t"":27456},{""key"":""ArrowUp"",""event"":""keydown"",""t"":27487},{""key"":""ArrowUp"",""event"":""keydown"",""t"":27536},{""key"":""ArrowUp"",""event"":""keydown"",""t"":27567},{""key"":""ArrowUp"",""event"":""keydown"",""t"":27599},{""key"":""ArrowUp"",""event"":""keydown"",""t"":27629},{""key"":""ArrowUp"",""event"":""keydown"",""t"":27660},{""key"":""ArrowUp"",""event"":""keydown"",""t"":27691},{""key"":""ArrowUp"",""event"":""keydown"",""t"":27722},{""key"":""ArrowUp"",""event"":""keydown"",""t"":27754},{""key"":""ArrowUp"",""event"":""keydown"",""t"":27786},{""key"":""ArrowUp"",""event"":""keydown"",""t"":27819},{""key"":""ArrowUp"",""event"":""keyup"",""t"":27822},{""key"":""ArrowRight"",""event"":""keydown"",""t"":28174},{""key"":""ArrowRight"",""event"":""keydown"",""t"":28678},{""key"":""ArrowRight"",""event"":""keydown"",""t"":28709},{""key"":""ArrowRight"",""event"":""keydown"",""t"":28755},{""key"":""ArrowRight"",""event"":""keydown"",""t"":28787},{""key"":""ArrowRight"",""event"":""keydown"",""t"":28818},{""key"":""ArrowRight"",""event"":""keydown"",""t"":28849},{""key"":""ArrowRight"",""event"":""keydown"",""t"":28879},{""key"":""ArrowRight"",""event"":""keydown"",""t"":28911},{""key"":""ArrowRight"",""event"":""keydown"",""t"":28942},{""key"":""ArrowRight"",""event"":""keydown"",""t"":28972},{""key"":""ArrowRight"",""event"":""keydown"",""t"":29020},{""key"":""ArrowRight"",""event"":""keydown"",""t"":29052},{""key"":""ArrowRight"",""event"":""keydown"",""t"":29084},{""key"":""ArrowRight"",""event"":""keydown"",""t"":29112},{""key"":""ArrowRight"",""event"":""keydown"",""t"":29143},{""key"":""ArrowRight"",""event"":""keydown"",""t"":29174},{""key"":""ArrowRight"",""event"":""keydown"",""t"":29206},{""key"":""ArrowRight"",""event"":""keydown"",""t"":29237},{""key"":""ArrowRight"",""event"":""keydown"",""t"":29268},{""key"":""ArrowRight"",""event"":""keydown"",""t"":29317},{""key"":""ArrowRight"",""event"":""keydown"",""t"":29350},{""key"":""ArrowRight"",""event"":""keydown"",""t"":29379},{""key"":""ArrowRight"",""event"":""keydown"",""t"":29408},{""key"":""ArrowRight"",""event"":""keydown"",""t"":29440},{""key"":""ArrowRight"",""event"":""keydown"",""t"":29472},{""key"":""ArrowRight"",""event"":""keydown"",""t"":29504},{""key"":""ArrowRight"",""event"":""keydown"",""t"":29535},{""key"":""ArrowRight"",""event"":""keydown"",""t"":29568},{""key"":""ArrowRight"",""event"":""keydown"",""t"":29616},{""key"":""ArrowRight"",""event"":""keydown"",""t"":29644},{""key"":""ArrowRight"",""event"":""keydown"",""t"":29675},{""key"":""ArrowRight"",""event"":""keydown"",""t"":29705},{""key"":""ArrowRight"",""event"":""keydown"",""t"":29737},{""key"":""ArrowRight"",""event"":""keydown"",""t"":29769},{""key"":""ArrowRight"",""event"":""keydown"",""t"":29801},{""key"":""ArrowRight"",""event"":""keydown"",""t"":29834},{""key"":""ArrowRight"",""event"":""keydown"",""t"":29867},{""key"":""ArrowRight"",""event"":""keydown"",""t"":29896},{""key"":""ArrowRight"",""event"":""keydown"",""t"":29942},{""key"":""ArrowRight"",""event"":""keydown"",""t"":29974},{""key"":""ArrowRight"",""event"":""keydown"",""t"":30005},{""key"":""ArrowRight"",""event"":""keydown"",""t"":30037},{""key"":""ArrowRight"",""event"":""keydown"",""t"":30068},{""key"":""ArrowRight"",""event"":""keydown"",""t"":30101},{""key"":""ArrowRight"",""event"":""keydown"",""t"":30129},{""key"":""ArrowRight"",""event"":""keydown"",""t"":30160},{""key"":""ArrowRight"",""event"":""keydown"",""t"":30206},{""key"":""ArrowRight"",""event"":""keydown"",""t"":30239},{""key"":""ArrowRight"",""event"":""keydown"",""t"":30270},{""key"":""ArrowRight"",""event"":""keydown"",""t"":30303},{""key"":""ArrowRight"",""event"":""keydown"",""t"":30334},{""key"":""ArrowRight"",""event"":""keydown"",""t"":30367},{""key"":""ArrowRight"",""event"":""keydown"",""t"":30393},{""key"":""ArrowRight"",""event"":""keydown"",""t"":30424},{""key"":""ArrowRight"",""event"":""keydown"",""t"":30470},{""key"":""ArrowRight"",""event"":""keydown"",""t"":30503},{""key"":""ArrowRight"",""event"":""keydown"",""t"":30535},{""key"":""ArrowRight"",""event"":""keydown"",""t"":30567},{""key"":""ArrowRight"",""event"":""keydown"",""t"":30596},{""key"":""ArrowRight"",""event"":""keydown"",""t"":30627},{""key"":""ArrowRight"",""event"":""keydown"",""t"":30657},{""key"":""ArrowRight"",""event"":""keydown"",""t"":30689},{""key"":""ArrowRight"",""event"":""keydown"",""t"":30736},{""key"":""ArrowRight"",""event"":""keydown"",""t"":30768},{""key"":""ArrowRight"",""event"":""keydown"",""t"":30801},{""key"":""ArrowRight"",""event"":""keydown"",""t"":30833},{""key"":""ArrowRight"",""event"":""keydown"",""t"":30866},{""key"":""ArrowRight"",""event"":""keydown"",""t"":30894},{""key"":""ArrowRight"",""event"":""keydown"",""t"":30925},{""key"":""ArrowRight"",""event"":""keydown"",""t"":30955},{""key"":""ArrowRight"",""event"":""keydown"",""t"":30987},{""key"":""ArrowRight"",""event"":""keydown"",""t"":31019},{""key"":""ArrowRight"",""event"":""keydown"",""t"":31066},{""key"":""ArrowRight"",""event"":""keydown"",""t"":31096},{""key"":""ArrowRight"",""event"":""keydown"",""t"":31127},{""key"":""ArrowRight"",""event"":""keydown"",""t"":31158},{""key"":""ArrowRight"",""event"":""keydown"",""t"":31189},{""key"":""ArrowRight"",""event"":""keydown"",""t"":31220},{""key"":""ArrowRight"",""event"":""keydown"",""t"":31252},{""key"":""ArrowRight"",""event"":""keydown"",""t"":31283},{""key"":""ArrowRight"",""event"":""keydown"",""t"":31328},{""key"":""ArrowRight"",""event"":""keydown"",""t"":31360},{""key"":""ArrowRight"",""event"":""keydown"",""t"":31390},{""key"":""ArrowRight"",""event"":""keydown"",""t"":31421},{""key"":""ArrowRight"",""event"":""keydown"",""t"":31453},{""key"":""ArrowRight"",""event"":""keydown"",""t"":31486},{""key"":""ArrowRight"",""event"":""keydown"",""t"":31519},{""key"":""ArrowRight"",""event"":""keydown"",""t"":31550},{""key"":""ArrowRight"",""event"":""keydown"",""t"":31578},{""key"":""ArrowRight"",""event"":""keydown"",""t"":31625},{""key"":""ArrowRight"",""event"":""keydown"",""t"":31656},{""key"":""ArrowRight"",""event"":""keydown"",""t"":31688},{""key"":""ArrowRight"",""event"":""keydown"",""t"":31718},{""key"":""ArrowRight"",""event"":""keydown"",""t"":31750},{""key"":""ArrowRight"",""event"":""keydown"",""t"":31784},{""key"":""ArrowRight"",""event"":""keydown"",""t"":31815},{""key"":""ArrowRight"",""event"":""keydown"",""t"":31844},{""key"":""ArrowRight"",""event"":""keydown"",""t"":31875},{""key"":""ArrowRight"",""event"":""keydown"",""t"":31922},{""key"":""ArrowRight"",""event"":""keydown"",""t"":31953},{""key"":""ArrowRight"",""event"":""keydown"",""t"":31986},{""key"":""ArrowRight"",""event"":""keydown"",""t"":32018},{""key"":""ArrowRight"",""event"":""keydown"",""t"":32051},{""key"":""ArrowRight"",""event"":""keydown"",""t"":32083},{""key"":""ArrowRight"",""event"":""keydown"",""t"":32111},{""key"":""ArrowRight"",""event"":""keydown"",""t"":32142},{""key"":""ArrowRight"",""event"":""keydown"",""t"":32173},{""key"":""ArrowRight"",""event"":""keydown"",""t"":32220},{""key"":""ArrowRight"",""event"":""keydown"",""t"":32252},{""key"":""ArrowRight"",""event"":""keydown"",""t"":32285},{""key"":""ArrowRight"",""event"":""keydown"",""t"":32316},{""key"":""ArrowRight"",""event"":""keydown"",""t"":32344},{""key"":""ArrowRight"",""event"":""keydown"",""t"":32375},{""key"":""ArrowRight"",""event"":""keydown"",""t"":32405},{""key"":""ArrowRight"",""event"":""keydown"",""t"":32437},{""key"":""ArrowRight"",""event"":""keydown"",""t"":32485},{""key"":""ArrowRight"",""event"":""keydown"",""t"":32516},{""key"":""ArrowRight"",""event"":""keydown"",""t"":32545},{""key"":""ArrowRight"",""event"":""keydown"",""t"":32577},{""key"":""ArrowRight"",""event"":""keydown"",""t"":32609},{""key"":""ArrowRight"",""event"":""keydown"",""t"":32639},{""key"":""ArrowRight"",""event"":""keydown"",""t"":32671},{""key"":""ArrowRight"",""event"":""keydown"",""t"":32703},{""key"":""ArrowRight"",""event"":""keydown"",""t"":32736},{""key"":""ArrowRight"",""event"":""keydown"",""t"":32768},{""key"":""ArrowRight"",""event"":""keydown"",""t"":32817},{""key"":""ArrowRight"",""event"":""keydown"",""t"":32845},{""key"":""ArrowRight"",""event"":""keydown"",""t"":32875},{""key"":""ArrowRight"",""event"":""keydown"",""t"":32906},{""key"":""ArrowRight"",""event"":""keydown"",""t"":32938},{""key"":""ArrowRight"",""event"":""keydown"",""t"":32970},{""key"":""ArrowRight"",""event"":""keydown"",""t"":33002},{""key"":""ArrowRight"",""event"":""keydown"",""t"":33034},{""key"":""ArrowRight"",""event"":""keydown"",""t"":33066},{""key"":""ArrowRight"",""event"":""keydown"",""t"":33099},{""key"":""ArrowRight"",""event"":""keydown"",""t"":33144},{""key"":""ArrowRight"",""event"":""keydown"",""t"":33176},{""key"":""ArrowRight"",""event"":""keydown"",""t"":33208},{""key"":""ArrowRight"",""event"":""keydown"",""t"":33239},{""key"":""ArrowRight"",""event"":""keydown"",""t"":33271},{""key"":""ArrowRight"",""event"":""keydown"",""t"":33303},{""key"":""ArrowRight"",""event"":""keydown"",""t"":33335},{""key"":""ArrowRight"",""event"":""keydown"",""t"":33367},{""key"":""ArrowRight"",""event"":""keydown"",""t"":33399},{""key"":""ArrowRight"",""event"":""keydown"",""t"":33427},{""key"":""ArrowRight"",""event"":""keydown"",""t"":33474},{""key"":""ArrowRight"",""event"":""keydown"",""t"":33506},{""key"":""ArrowRight"",""event"":""keydown"",""t"":33537},{""key"":""ArrowRight"",""event"":""keydown"",""t"":33568},{""key"":""ArrowRight"",""event"":""keydown"",""t"":33599},{""key"":""ArrowRight"",""event"":""keydown"",""t"":33629},{""key"":""ArrowRight"",""event"":""keydown"",""t"":33661},{""key"":""ArrowRight"",""event"":""keydown"",""t"":33692},{""key"":""ArrowRight"",""event"":""keydown"",""t"":33739},{""key"":""ArrowRight"",""event"":""keydown"",""t"":33770},{""key"":""ArrowRight"",""event"":""keydown"",""t"":33801},{""key"":""ArrowRight"",""event"":""keydown"",""t"":33833},{""key"":""ArrowRight"",""event"":""keydown"",""t"":33860},{""key"":""ArrowRight"",""event"":""keydown"",""t"":33891},{""key"":""ArrowRight"",""event"":""keydown"",""t"":33922},{""key"":""ArrowRight"",""event"":""keydown"",""t"":33955},{""key"":""ArrowRight"",""event"":""keydown"",""t"":34003},{""key"":""ArrowRight"",""event"":""keydown"",""t"":34035},{""key"":""ArrowRight"",""event"":""keydown"",""t"":34066},{""key"":""ArrowUp"",""event"":""keydown"",""t"":34093},{""key"":""ArrowRight"",""event"":""keyup"",""t"":34173},{""key"":""ArrowUp"",""event"":""keydown"",""t"":34689},{""key"":""ArrowUp"",""event"":""keydown"",""t"":34720},{""key"":""ArrowUp"",""event"":""keydown"",""t"":34751},{""key"":""ArrowUp"",""event"":""keydown"",""t"":34784},{""key"":""ArrowUp"",""event"":""keydown"",""t"":34815},{""key"":""ArrowLeft"",""event"":""keydown"",""t"":34822},{""key"":""ArrowLeft"",""event"":""keyup"",""t"":35158},{""key"":""ArrowUp"",""event"":""keyup"",""t"":35238},{""key"":""ArrowRight"",""event"":""keydown"",""t"":35422},{""key"":""ArrowRight"",""event"":""keydown"",""t"":35935},{""key"":""ArrowRight"",""event"":""keydown"",""t"":35968},{""key"":""ArrowRight"",""event"":""keydown"",""t"":36001},{""key"":""ArrowRight"",""event"":""keydown"",""t"":36030},{""key"":""ArrowRight"",""event"":""keydown"",""t"":36060},{""key"":""ArrowRight"",""event"":""keydown"",""t"":36091},{""key"":""ArrowRight"",""event"":""keydown"",""t"":36122},{""key"":""ArrowRight"",""event"":""keydown"",""t"":36168},{""key"":""ArrowRight"",""event"":""keydown"",""t"":36202},{""key"":""ArrowRight"",""event"":""keydown"",""t"":36232},{""key"":""ArrowRight"",""event"":""keydown"",""t"":36262},{""key"":""ArrowRight"",""event"":""keydown"",""t"":36293},{""key"":""ArrowUp"",""event"":""keydown"",""t"":36310},{""key"":""ArrowUp"",""event"":""keyup"",""t"":36470},{""key"":""ArrowRight"",""event"":""keyup"",""t"":37790},{""key"":""ArrowUp"",""event"":""keydown"",""t"":37894},{""key"":""ArrowUp"",""event"":""keyup"",""t"":37977},{""key"":""ArrowUp"",""event"":""keydown"",""t"":38094},{""key"":""ArrowUp"",""event"":""keyup"",""t"":38158},{""key"":""ArrowUp"",""event"":""keydown"",""t"":38294},{""key"":""ArrowUp"",""event"":""keyup"",""t"":38341},{""key"":""ArrowUp"",""event"":""keydown"",""t"":38438},{""key"":""ArrowUp"",""event"":""keyup"",""t"":38551},{""key"":""ArrowLeft"",""event"":""keydown"",""t"":38742},{""key"":""ArrowLeft"",""event"":""keyup"",""t"":38935},{""key"":""ArrowLeft"",""event"":""keydown"",""t"":39078},{""key"":""ArrowUp"",""event"":""keydown"",""t"":39110},{""key"":""ArrowUp"",""event"":""keyup"",""t"":39238},{""key"":""ArrowLeft"",""event"":""keyup"",""t"":39399},{""key"":""ArrowLeft"",""event"":""keydown"",""t"":39454},{""key"":""ArrowLeft"",""event"":""keyup"",""t"":39686},{""key"":""ArrowDown"",""event"":""keydown"",""t"":39726},{""key"":""ArrowDown"",""event"":""keyup"",""t"":40142},{""key"":""ArrowLeft"",""event"":""keydown"",""t"":40894},{""key"":""ArrowLeft"",""event"":""keydown"",""t"":41401},{""key"":""ArrowLeft"",""event"":""keydown"",""t"":41433},{""key"":""ArrowDown"",""event"":""keydown"",""t"":41462},{""key"":""ArrowLeft"",""event"":""keyup"",""t"":41862},{""key"":""ArrowDown"",""event"":""keyup"",""t"":41862},{""key"":""ArrowUp"",""event"":""keydown"",""t"":41990},{""key"":""ArrowUp"",""event"":""keydown"",""t"":42501},{""key"":""ArrowUp"",""event"":""keydown"",""t"":42529},{""key"":""ArrowUp"",""event"":""keydown"",""t"":42560},{""key"":""ArrowUp"",""event"":""keydown"",""t"":42591},{""key"":""ArrowUp"",""event"":""keydown"",""t"":42638},{""key"":""ArrowUp"",""event"":""keydown"",""t"":42670},{""key"":""ArrowUp"",""event"":""keydown"",""t"":42702},{""key"":""ArrowUp"",""event"":""keydown"",""t"":42734},{""key"":""ArrowUp"",""event"":""keydown"",""t"":42767},{""key"":""ArrowUp"",""event"":""keydown"",""t"":42799},{""key"":""ArrowLeft"",""event"":""keydown"",""t"":42817},{""key"":""ArrowUp"",""event"":""keyup"",""t"":43005},{""key"":""ArrowLeft"",""event"":""keyup"",""t"":43189},{""key"":""w"",""event"":""keydown"",""t"":44151},{""key"":""w"",""event"":""keydown"",""t"":44659},{""key"":""w"",""event"":""keydown"",""t"":44691},{""key"":""w"",""event"":""keydown"",""t"":44722},{""key"":""w"",""event"":""keydown"",""t"":44754},{""key"":""w"",""event"":""keyup"",""t"":44773},{""key"":""w"",""event"":""keydown"",""t"":44870},{""key"":""ArrowUp"",""event"":""keydown"",""t"":45094},{""key"":""w"",""event"":""keyup"",""t"":45238},{""key"":""ArrowUp"",""event"":""keyup"",""t"":45470},{""key"":""ArrowDown"",""event"":""keydown"",""t"":45702},{""key"":""w"",""event"":""keydown"",""t"":45710},{""key"":""w"",""event"":""keyup"",""t"":45799},{""key"":""ArrowDown"",""event"":""keyup"",""t"":45822},{""key"":""w"",""event"":""keydown"",""t"":45910},{""key"":""ArrowDown"",""event"":""keydown"",""t"":45958},{""key"":""w"",""event"":""keyup"",""t"":45982},{""key"":""ArrowDown"",""event"":""keyup"",""t"":46061},{""key"":""w"",""event"":""keydown"",""t"":46094},{""key"":""w"",""event"":""keyup"",""t"":46158},{""key"":""ArrowDown"",""event"":""keydown"",""t"":46201},{""key"":""ArrowDown"",""event"":""keyup"",""t"":46222},{""key"":""ArrowDown"",""event"":""keydown"",""t"":46262},{""key"":""ArrowDown"",""event"":""keyup"",""t"":46373},{""key"":""ArrowDown"",""event"":""keydown"",""t"":46493},{""key"":""ArrowDown"",""event"":""keyup"",""t"":46567},{""key"":""ArrowDown"",""event"":""keydown"",""t"":46677},{""key"":""ArrowLeft"",""event"":""keydown"",""t"":46910},{""key"":""ArrowDown"",""event"":""keyup"",""t"":46966},{""key"":""ArrowUp"",""event"":""keydown"",""t"":47326},{""key"":""ArrowUp"",""event"":""keyup"",""t"":47405},{""key"":""ArrowUp"",""event"":""keydown"",""t"":47926},{""key"":""ArrowUp"",""event"":""keyup"",""t"":48222},{""key"":""ArrowLeft"",""event"":""keyup"",""t"":48358},{""key"":""ArrowLeft"",""event"":""keydown"",""t"":48574},{""key"":""ArrowLeft"",""event"":""keydown"",""t"":49085},{""key"":""ArrowLeft"",""event"":""keydown"",""t"":49118},{""key"":""ArrowLeft"",""event"":""keydown"",""t"":49149},{""key"":""ArrowLeft"",""event"":""keydown"",""t"":49179},{""key"":""ArrowLeft"",""event"":""keydown"",""t"":49210},{""key"":""ArrowLeft"",""event"":""keydown"",""t"":49241},{""key"":""ArrowLeft"",""event"":""keydown"",""t"":49272},{""key"":""ArrowLeft"",""event"":""keydown"",""t"":49320},{""key"":""ArrowLeft"",""event"":""keydown"",""t"":49351},{""key"":""ArrowLeft"",""event"":""keydown"",""t"":49383},{""key"":""ArrowLeft"",""event"":""keydown"",""t"":49412},{""key"":""ArrowLeft"",""event"":""keydown"",""t"":49442},{""key"":""ArrowLeft"",""event"":""keydown"",""t"":49473},{""key"":""ArrowLeft"",""event"":""keydown"",""t"":49506},{""key"":""ArrowLeft"",""event"":""keydown"",""t"":49552},{""key"":""ArrowLeft"",""event"":""keydown"",""t"":49582},{""key"":""ArrowLeft"",""event"":""keydown"",""t"":49612},{""key"":""ArrowLeft"",""event"":""keydown"",""t"":49643},{""key"":""ArrowLeft"",""event"":""keydown"",""t"":49674},{""key"":""ArrowLeft"",""event"":""keydown"",""t"":49705},{""key"":""ArrowLeft"",""event"":""keydown"",""t"":49737},{""key"":""ArrowLeft"",""event"":""keydown"",""t"":49769},{""key"":""ArrowUp"",""event"":""keydown"",""t"":49800},{""key"":""ArrowLeft"",""event"":""keyup"",""t"":49817},{""key"":""ArrowUp"",""event"":""keydown"",""t"":50316},{""key"":""ArrowUp"",""event"":""keydown"",""t"":50361},{""key"":""ArrowUp"",""event"":""keydown"",""t"":50392},{""key"":""ArrowLeft"",""event"":""keydown"",""t"":50415},{""key"":""ArrowUp"",""event"":""keyup"",""t"":50525},{""key"":""ArrowLeft"",""event"":""keydown"",""t"":51035},{""key"":""ArrowLeft"",""event"":""keydown"",""t"":51068},{""key"":""ArrowLeft"",""event"":""keydown"",""t"":51101},{""key"":""ArrowLeft"",""event"":""keydown"",""t"":51132},{""key"":""ArrowLeft"",""event"":""keydown"",""t"":51160},{""key"":""ArrowLeft"",""event"":""keydown"",""t"":51191},{""key"":""ArrowLeft"",""event"":""keydown"",""t"":51238},{""key"":""ArrowLeft"",""event"":""keydown"",""t"":51270},{""key"":""ArrowLeft"",""event"":""keydown"",""t"":51302},{""key"":""ArrowLeft"",""event"":""keydown"",""t"":51335},{""key"":""ArrowLeft"",""event"":""keydown"",""t"":51368},{""key"":""ArrowLeft"",""event"":""keydown"",""t"":51401},{""key"":""ArrowLeft"",""event"":""keydown"",""t"":51432},{""key"":""ArrowLeft"",""event"":""keydown"",""t"":51461},{""key"":""ArrowLeft"",""event"":""keydown"",""t"":51492},{""key"":""ArrowLeft"",""event"":""keydown"",""t"":51523},{""key"":""ArrowLeft"",""event"":""keydown"",""t"":51555},{""key"":""ArrowLeft"",""event"":""keydown"",""t"":51602},{""key"":""ArrowLeft"",""event"":""keydown"",""t"":51635},{""key"":""ArrowLeft"",""event"":""keydown"",""t"":51667},{""key"":""ArrowLeft"",""event"":""keydown"",""t"":51699},{""key"":""ArrowLeft"",""event"":""keydown"",""t"":51728},{""key"":""ArrowLeft"",""event"":""keydown"",""t"":51758},{""key"":""ArrowLeft"",""event"":""keydown"",""t"":51790},{""key"":""ArrowLeft"",""event"":""keydown"",""t"":51821},{""key"":""ArrowLeft"",""event"":""keydown"",""t"":51852},{""key"":""ArrowLeft"",""event"":""keydown"",""t"":51901},{""key"":""ArrowLeft"",""event"":""keydown"",""t"":51928},{""key"":""ArrowLeft"",""event"":""keydown"",""t"":51959},{""key"":""ArrowLeft"",""event"":""keydown"",""t"":51991},{""key"":""ArrowLeft"",""event"":""keydown"",""t"":52022},{""key"":""ArrowLeft"",""event"":""keydown"",""t"":52053},{""key"":""ArrowLeft"",""event"":""keydown"",""t"":52085},{""key"":""ArrowLeft"",""event"":""keydown"",""t"":52116},{""key"":""ArrowLeft"",""event"":""keydown"",""t"":52162},{""key"":""ArrowLeft"",""event"":""keydown"",""t"":52193},{""key"":""ArrowLeft"",""event"":""keydown"",""t"":52225},{""key"":""ArrowLeft"",""event"":""keydown"",""t"":52256},{""key"":""ArrowLeft"",""event"":""keydown"",""t"":52288},{""key"":""ArrowLeft"",""event"":""keydown"",""t"":52318},{""key"":""ArrowLeft"",""event"":""keydown"",""t"":52349},{""key"":""ArrowLeft"",""event"":""keydown"",""t"":52382},{""key"":""ArrowLeft"",""event"":""keydown"",""t"":52416},{""key"":""ArrowLeft"",""event"":""keydown"",""t"":52446},{""key"":""ArrowLeft"",""event"":""keydown"",""t"":52492},{""key"":""ArrowLeft"",""event"":""keydown"",""t"":52524},{""key"":""ArrowLeft"",""event"":""keydown"",""t"":52555},{""key"":""ArrowLeft"",""event"":""keydown"",""t"":52587},{""key"":""ArrowLeft"",""event"":""keydown"",""t"":52619},{""key"":""ArrowLeft"",""event"":""keydown"",""t"":52651},{""key"":""ArrowLeft"",""event"":""keydown"",""t"":52683},{""key"":""ArrowLeft"",""event"":""keydown"",""t"":52715},{""key"":""ArrowLeft"",""event"":""keydown"",""t"":52745},{""key"":""ArrowLeft"",""event"":""keydown"",""t"":52777},{""key"":""ArrowLeft"",""event"":""keydown"",""t"":52823},{""key"":""ArrowLeft"",""event"":""keydown"",""t"":52853},{""key"":""ArrowLeft"",""event"":""keydown"",""t"":52886},{""key"":""ArrowLeft"",""event"":""keydown"",""t"":52918},{""key"":""ArrowLeft"",""event"":""keydown"",""t"":52951},{""key"":""ArrowLeft"",""event"":""keydown"",""t"":52983},{""key"":""ArrowLeft"",""event"":""keydown"",""t"":53013},{""key"":""ArrowLeft"",""event"":""keydown"",""t"":53044},{""key"":""ArrowLeft"",""event"":""keydown"",""t"":53075},{""key"":""ArrowLeft"",""event"":""keydown"",""t"":53105},{""key"":""ArrowLeft"",""event"":""keydown"",""t"":53152},{""key"":""ArrowLeft"",""event"":""keydown"",""t"":53184},{""key"":""ArrowLeft"",""event"":""keydown"",""t"":53216},{""key"":""ArrowLeft"",""event"":""keydown"",""t"":53249},{""key"":""ArrowLeft"",""event"":""keydown"",""t"":53277},{""key"":""ArrowLeft"",""event"":""keydown"",""t"":53308},{""key"":""ArrowLeft"",""event"":""keydown"",""t"":53339},{""key"":""ArrowLeft"",""event"":""keydown"",""t"":53371},{""key"":""ArrowLeft"",""event"":""keydown"",""t"":53402},{""key"":""ArrowLeft"",""event"":""keydown"",""t"":53451},{""key"":""ArrowLeft"",""event"":""keydown"",""t"":53482},{""key"":""ArrowLeft"",""event"":""keydown"",""t"":53512},{""key"":""ArrowLeft"",""event"":""keydown"",""t"":53543},{""key"":""ArrowLeft"",""event"":""keydown"",""t"":53574},{""key"":""ArrowLeft"",""event"":""keydown"",""t"":53605},{""key"":""ArrowLeft"",""event"":""keydown"",""t"":53636},{""key"":""ArrowLeft"",""event"":""keydown"",""t"":53668},{""key"":""ArrowLeft"",""event"":""keydown"",""t"":53702},{""key"":""ArrowLeft"",""event"":""keydown"",""t"":53749},{""key"":""ArrowLeft"",""event"":""keydown"",""t"":53777},{""key"":""ArrowLeft"",""event"":""keydown"",""t"":53809},{""key"":""ArrowLeft"",""event"":""keydown"",""t"":53840},{""key"":""ArrowLeft"",""event"":""keydown"",""t"":53871},{""key"":""ArrowLeft"",""event"":""keydown"",""t"":53903},{""key"":""ArrowLeft"",""event"":""keydown"",""t"":53936},{""key"":""ArrowLeft"",""event"":""keydown"",""t"":53969},{""key"":""ArrowLeft"",""event"":""keydown"",""t"":54001},{""key"":""ArrowLeft"",""event"":""keydown"",""t"":54032},{""key"":""ArrowLeft"",""event"":""keydown"",""t"":54068},{""key"":""ArrowLeft"",""event"":""keydown"",""t"":54098},{""key"":""ArrowLeft"",""event"":""keydown"",""t"":54142},{""key"":""ArrowLeft"",""event"":""keydown"",""t"":54173},{""key"":""ArrowLeft"",""event"":""keydown"",""t"":54205},{""key"":""ArrowLeft"",""event"":""keydown"",""t"":54237},{""key"":""ArrowLeft"",""event"":""keydown"",""t"":54269},{""key"":""ArrowLeft"",""event"":""keydown"",""t"":54302},{""key"":""ArrowLeft"",""event"":""keydown"",""t"":54333},{""key"":""ArrowLeft"",""event"":""keydown"",""t"":54366},{""key"":""ArrowLeft"",""event"":""keydown"",""t"":54396},{""key"":""ArrowLeft"",""event"":""keydown"",""t"":54427},{""key"":""ArrowLeft"",""event"":""keydown"",""t"":54459},{""key"":""ArrowLeft"",""event"":""keydown"",""t"":54505},{""key"":""ArrowLeft"",""event"":""keydown"",""t"":54536},{""key"":""ArrowLeft"",""event"":""keydown"",""t"":54568},{""key"":""ArrowLeft"",""event"":""keydown"",""t"":54601},{""key"":""ArrowLeft"",""event"":""keydown"",""t"":54632},{""key"":""ArrowLeft"",""event"":""keydown"",""t"":54660},{""key"":""ArrowLeft"",""event"":""keydown"",""t"":54691},{""key"":""ArrowLeft"",""event"":""keydown"",""t"":54722},{""key"":""ArrowLeft"",""event"":""keydown"",""t"":54769},{""key"":""ArrowLeft"",""event"":""keydown"",""t"":54801},{""key"":""ArrowLeft"",""event"":""keydown"",""t"":54832},{""key"":""ArrowLeft"",""event"":""keydown"",""t"":54866},{""key"":""ArrowLeft"",""event"":""keydown"",""t"":54895},{""key"":""ArrowLeft"",""event"":""keydown"",""t"":54928},{""key"":""ArrowLeft"",""event"":""keydown"",""t"":54959},{""key"":""ArrowLeft"",""event"":""keydown"",""t"":54989},{""key"":""ArrowLeft"",""event"":""keydown"",""t"":55021},{""key"":""ArrowLeft"",""event"":""keydown"",""t"":55068},{""key"":""ArrowLeft"",""event"":""keydown"",""t"":55101},{""key"":""ArrowLeft"",""event"":""keydown"",""t"":55132},{""key"":""ArrowLeft"",""event"":""keydown"",""t"":55165},{""key"":""ArrowLeft"",""event"":""keydown"",""t"":55194},{""key"":""ArrowLeft"",""event"":""keydown"",""t"":55227},{""key"":""ArrowLeft"",""event"":""keydown"",""t"":55259},{""key"":""ArrowLeft"",""event"":""keydown"",""t"":55290},{""key"":""ArrowLeft"",""event"":""keydown"",""t"":55321},{""key"":""ArrowLeft"",""event"":""keydown"",""t"":55352},{""key"":""ArrowLeft"",""event"":""keydown"",""t"":55385},{""key"":""ArrowLeft"",""event"":""keydown"",""t"":55433},{""key"":""ArrowLeft"",""event"":""keydown"",""t"":55461},{""key"":""ArrowLeft"",""event"":""keyup"",""t"":55477},{""key"":""ArrowDown"",""event"":""keydown"",""t"":55551},{""key"":""ArrowRight"",""event"":""keydown"",""t"":55838},{""key"":""ArrowDown"",""event"":""keyup"",""t"":55973},{""key"":""ArrowUp"",""event"":""keydown"",""t"":56310},{""key"":""ArrowRight"",""event"":""keyup"",""t"":56389},{""key"":""ArrowLeft"",""event"":""keydown"",""t"":56806},{""key"":""ArrowLeft"",""event"":""keydown"",""t"":57315},{""key"":""ArrowLeft"",""event"":""keydown"",""t"":57345},{""key"":""ArrowLeft"",""event"":""keydown"",""t"":57377},{""key"":""ArrowLeft"",""event"":""keydown"",""t"":57408},{""key"":""ArrowLeft"",""event"":""keydown"",""t"":57438},{""key"":""ArrowLeft"",""event"":""keydown"",""t"":57485},{""key"":""ArrowLeft"",""event"":""keydown"",""t"":57516},{""key"":""ArrowLeft"",""event"":""keydown"",""t"":57549},{""key"":""ArrowLeft"",""event"":""keydown"",""t"":57579},{""key"":""ArrowLeft"",""event"":""keydown"",""t"":57610},{""key"":""ArrowLeft"",""event"":""keydown"",""t"":57641},{""key"":""ArrowLeft"",""event"":""keydown"",""t"":57672},{""key"":""ArrowLeft"",""event"":""keydown"",""t"":57703},{""key"":""ArrowLeft"",""event"":""keydown"",""t"":57751},{""key"":""ArrowLeft"",""event"":""keydown"",""t"":57783},{""key"":""ArrowLeft"",""event"":""keydown"",""t"":57815},{""key"":""ArrowLeft"",""event"":""keydown"",""t"":57844},{""key"":""ArrowLeft"",""event"":""keydown"",""t"":57875},{""key"":""ArrowLeft"",""event"":""keydown"",""t"":57906},{""key"":""ArrowLeft"",""event"":""keydown"",""t"":57937},{""key"":""ArrowLeft"",""event"":""keydown"",""t"":57969},{""key"":""ArrowLeft"",""event"":""keydown"",""t"":58002},{""key"":""ArrowLeft"",""event"":""keydown"",""t"":58034},{""key"":""ArrowLeft"",""event"":""keydown"",""t"":58079},{""key"":""ArrowLeft"",""event"":""keydown"",""t"":58110},{""key"":""ArrowLeft"",""event"":""keydown"",""t"":58141},{""key"":""ArrowLeft"",""event"":""keydown"",""t"":58173},{""key"":""ArrowLeft"",""event"":""keydown"",""t"":58204},{""key"":""ArrowLeft"",""event"":""keydown"",""t"":58235},{""key"":""ArrowLeft"",""event"":""keydown"",""t"":58268},{""key"":""ArrowLeft"",""event"":""keydown"",""t"":58300},{""key"":""ArrowLeft"",""event"":""keydown"",""t"":58332},{""key"":""ArrowLeft"",""event"":""keyup"",""t"":58357},{""key"":""ArrowUp"",""event"":""keyup"",""t"":60661},{""key"":""ArrowUp"",""event"":""keydown"",""t"":61862},{""key"":""ArrowUp"",""event"":""keydown"",""t"":62374},{""key"":""ArrowUp"",""event"":""keydown"",""t"":62405},{""key"":""ArrowUp"",""event"":""keydown"",""t"":62437},{""key"":""ArrowUp"",""event"":""keydown"",""t"":62470},{""key"":""ArrowUp"",""event"":""keyup"",""t"":62477},{""key"":""ArrowRight"",""event"":""keydown"",""t"":62686},{""key"":""ArrowRight"",""event"":""keydown"",""t"":63202},{""key"":""ArrowRight"",""event"":""keydown"",""t"":63234},{""key"":""ArrowRight"",""event"":""keydown"",""t"":63263},{""key"":""ArrowRight"",""event"":""keydown"",""t"":63293},{""key"":""ArrowRight"",""event"":""keydown"",""t"":63324},{""key"":""ArrowRight"",""event"":""keydown"",""t"":63356},{""key"":""ArrowRight"",""event"":""keydown"",""t"":63386},{""key"":""ArrowRight"",""event"":""keydown"",""t"":63418},{""key"":""ArrowRight"",""event"":""keydown"",""t"":63468},{""key"":""ArrowRight"",""event"":""keydown"",""t"":63494},{""key"":""ArrowRight"",""event"":""keydown"",""t"":63525},{""key"":""ArrowRight"",""event"":""keydown"",""t"":63556},{""key"":""ArrowRight"",""event"":""keydown"",""t"":63587},{""key"":""ArrowRight"",""event"":""keydown"",""t"":63619},{""key"":""ArrowRight"",""event"":""keydown"",""t"":63651},{""key"":""ArrowDown"",""event"":""keydown"",""t"":63670},{""key"":""ArrowDown"",""event"":""keyup"",""t"":64166},{""key"":""ArrowRight"",""event"":""keyup"",""t"":67926},{""key"":""ArrowUp"",""event"":""keydown"",""t"":83014},{""key"":""ArrowUp"",""event"":""keydown"",""t"":83518},{""key"":""ArrowUp"",""event"":""keydown"",""t"":83549},{""key"":""ArrowUp"",""event"":""keydown"",""t"":83581},{""key"":""ArrowUp"",""event"":""keydown"",""t"":83615},{""key"":""ArrowUp"",""event"":""keydown"",""t"":83660},{""key"":""ArrowUp"",""event"":""keydown"",""t"":83691},{""key"":""ArrowUp"",""event"":""keydown"",""t"":83723},{""key"":""ArrowUp"",""event"":""keydown"",""t"":83755},{""key"":""ArrowUp"",""event"":""keydown"",""t"":83786},{""key"":""ArrowUp"",""event"":""keydown"",""t"":83819},{""key"":""ArrowUp"",""event"":""keydown"",""t"":83851},{""key"":""ArrowUp"",""event"":""keydown"",""t"":83882},{""key"":""ArrowUp"",""event"":""keydown"",""t"":83915},{""key"":""ArrowUp"",""event"":""keydown"",""t"":83942},{""key"":""ArrowUp"",""event"":""keydown"",""t"":83993},{""key"":""ArrowUp"",""event"":""keyup"",""t"":83999},{""key"":""ArrowRight"",""event"":""keydown"",""t"":84453},{""key"":""ArrowRight"",""event"":""keydown"",""t"":84956},{""key"":""ArrowRight"",""event"":""keyup"",""t"":84973},{""key"":""ArrowUp"",""event"":""keydown"",""t"":85167},{""key"":""ArrowUp"",""event"":""keydown"",""t"":85670},{""key"":""ArrowUp"",""event"":""keyup"",""t"":85693},{""key"":""ArrowRight"",""event"":""keydown"",""t"":85806},{""key"":""ArrowRight"",""event"":""keydown"",""t"":86314},{""key"":""ArrowRight"",""event"":""keydown"",""t"":86343},{""key"":""ArrowRight"",""event"":""keydown"",""t"":86373},{""key"":""ArrowRight"",""event"":""keydown"",""t"":86406},{""key"":""ArrowRight"",""event"":""keyup"",""t"":86431},{""key"":""ArrowUp"",""event"":""keydown"",""t"":86477},{""key"":""ArrowUp"",""event"":""keydown"",""t"":86985},{""key"":""ArrowUp"",""event"":""keydown"",""t"":87017},{""key"":""ArrowUp"",""event"":""keyup"",""t"":87037},{""key"":""ArrowLeft"",""event"":""keydown"",""t"":87231},{""key"":""ArrowLeft"",""event"":""keyup"",""t"":87662},{""key"":""ArrowUp"",""event"":""keydown"",""t"":87701},{""key"":""ArrowRight"",""event"":""keydown"",""t"":87998},{""key"":""ArrowRight"",""event"":""keydown"",""t"":88498},{""key"":""ArrowRight"",""event"":""keydown"",""t"":88547},{""key"":""ArrowRight"",""event"":""keydown"",""t"":88575},{""key"":""ArrowRight"",""event"":""keydown"",""t"":88607},{""key"":""ArrowRight"",""event"":""keydown"",""t"":88638},{""key"":""ArrowRight"",""event"":""keydown"",""t"":88670},{""key"":""ArrowRight"",""event"":""keydown"",""t"":88702},{""key"":""ArrowRight"",""event"":""keydown"",""t"":88733},{""key"":""ArrowRight"",""event"":""keydown"",""t"":88765},{""key"":""ArrowRight"",""event"":""keydown"",""t"":88810},{""key"":""ArrowRight"",""event"":""keydown"",""t"":88842},{""key"":""ArrowRight"",""event"":""keydown"",""t"":88873},{""key"":""ArrowRight"",""event"":""keydown"",""t"":88904},{""key"":""ArrowRight"",""event"":""keydown"",""t"":88936},{""key"":""ArrowRight"",""event"":""keydown"",""t"":88968},{""key"":""ArrowRight"",""event"":""keydown"",""t"":89001},{""key"":""ArrowRight"",""event"":""keydown"",""t"":89031},{""key"":""ArrowUp"",""event"":""keyup"",""t"":89037},{""key"":""ArrowRight"",""event"":""keyup"",""t"":89134},{""key"":""ArrowDown"",""event"":""keydown"",""t"":89262},{""key"":""ArrowLeft"",""event"":""keydown"",""t"":89519},{""key"":""ArrowDown"",""event"":""keyup"",""t"":89637},{""key"":""ArrowLeft"",""event"":""keyup"",""t"":89885},{""key"":""ArrowLeft"",""event"":""keydown"",""t"":89981},{""key"":""ArrowLeft"",""event"":""keydown"",""t"":90490},{""key"":""ArrowLeft"",""event"":""keydown"",""t"":90520},{""key"":""ArrowLeft"",""event"":""keydown"",""t"":90552},{""key"":""ArrowLeft"",""event"":""keydown"",""t"":90583},{""key"":""ArrowLeft"",""event"":""keydown"",""t"":90615},{""key"":""ArrowLeft"",""event"":""keydown"",""t"":90647},{""key"":""ArrowLeft"",""event"":""keydown"",""t"":90694},{""key"":""ArrowLeft"",""event"":""keydown"",""t"":90725},{""key"":""ArrowLeft"",""event"":""keydown"",""t"":90756},{""key"":""ArrowLeft"",""event"":""keydown"",""t"":90787},{""key"":""ArrowLeft"",""event"":""keydown"",""t"":90819},{""key"":""ArrowLeft"",""event"":""keydown"",""t"":90852},{""key"":""ArrowLeft"",""event"":""keydown"",""t"":90884},{""key"":""ArrowLeft"",""event"":""keydown"",""t"":90914},{""key"":""ArrowLeft"",""event"":""keydown"",""t"":90947},{""key"":""ArrowLeft"",""event"":""keydown"",""t"":90991},{""key"":""ArrowLeft"",""event"":""keydown"",""t"":91023},{""key"":""ArrowLeft"",""event"":""keydown"",""t"":91054},{""key"":""ArrowLeft"",""event"":""keydown"",""t"":91085},{""key"":""ArrowLeft"",""event"":""keydown"",""t"":91117},{""key"":""ArrowLeft"",""event"":""keydown"",""t"":91148},{""key"":""ArrowLeft"",""event"":""keydown"",""t"":91180},{""key"":""ArrowLeft"",""event"":""keydown"",""t"":91210},{""key"":""ArrowLeft"",""event"":""keydown"",""t"":91241},{""key"":""ArrowLeft"",""event"":""keydown"",""t"":91288},{""key"":""ArrowLeft"",""event"":""keydown"",""t"":91320},{""key"":""ArrowLeft"",""event"":""keydown"",""t"":91351},{""key"":""ArrowLeft"",""event"":""keydown"",""t"":91383},{""key"":""ArrowLeft"",""event"":""keydown"",""t"":91414},{""key"":""ArrowLeft"",""event"":""keydown"",""t"":91448},{""key"":""ArrowLeft"",""event"":""keydown"",""t"":91479},{""key"":""ArrowLeft"",""event"":""keydown"",""t"":91510},{""key"":""ArrowLeft"",""event"":""keydown"",""t"":91540},{""key"":""ArrowLeft"",""event"":""keydown"",""t"":91572},{""key"":""ArrowLeft"",""event"":""keydown"",""t"":91619},{""key"":""ArrowLeft"",""event"":""keydown"",""t"":91651},{""key"":""ArrowLeft"",""event"":""keydown"",""t"":91684},{""key"":""ArrowLeft"",""event"":""keydown"",""t"":91715},{""key"":""ArrowRight"",""event"":""keydown"",""t"":91734},{""key"":""ArrowLeft"",""event"":""keyup"",""t"":91822},{""key"":""ArrowRight"",""event"":""keydown"",""t"":92328},{""key"":""ArrowRight"",""event"":""keydown"",""t"":92359},{""key"":""ArrowRight"",""event"":""keydown"",""t"":92390},{""key"":""ArrowRight"",""event"":""keydown"",""t"":92435},{""key"":""ArrowRight"",""event"":""keydown"",""t"":92468},{""key"":""ArrowRight"",""event"":""keydown"",""t"":92501},{""key"":""ArrowRight"",""event"":""keydown"",""t"":92531},{""key"":""ArrowRight"",""event"":""keydown"",""t"":92565},{""key"":""ArrowRight"",""event"":""keydown"",""t"":92594},{""key"":""ArrowRight"",""event"":""keydown"",""t"":92624},{""key"":""ArrowRight"",""event"":""keydown"",""t"":92655},{""key"":""ArrowRight"",""event"":""keydown"",""t"":92686},{""key"":""ArrowRight"",""event"":""keydown"",""t"":92735},{""key"":""ArrowUp"",""event"":""keydown"",""t"":92735},{""key"":""ArrowRight"",""event"":""keyup"",""t"":92741},{""key"":""ArrowUp"",""event"":""keydown"",""t"":93248},{""key"":""ArrowUp"",""event"":""keydown"",""t"":93278},{""key"":""ArrowRight"",""event"":""keydown"",""t"":93293},{""key"":""ArrowRight"",""event"":""keydown"",""t"":93794},{""key"":""ArrowRight"",""event"":""keydown"",""t"":93841},{""key"":""ArrowRight"",""event"":""keydown"",""t"":93872},{""key"":""ArrowRight"",""event"":""keydown"",""t"":93903},{""key"":""ArrowRight"",""event"":""keydown"",""t"":93936},{""key"":""ArrowRight"",""event"":""keydown"",""t"":93968},{""key"":""ArrowRight"",""event"":""keydown"",""t"":93998},{""key"":""ArrowRight"",""event"":""keydown"",""t"":94031},{""key"":""ArrowRight"",""event"":""keydown"",""t"":94064},{""key"":""ArrowRight"",""event"":""keydown"",""t"":94093},{""key"":""ArrowRight"",""event"":""keydown"",""t"":94124},{""key"":""ArrowRight"",""event"":""keydown"",""t"":94156},{""key"":""ArrowRight"",""event"":""keydown"",""t"":94203},{""key"":""ArrowRight"",""event"":""keydown"",""t"":94235},{""key"":""ArrowRight"",""event"":""keydown"",""t"":94268},{""key"":""ArrowRight"",""event"":""keydown"",""t"":94298},{""key"":""ArrowRight"",""event"":""keydown"",""t"":94328},{""key"":""ArrowRight"",""event"":""keydown"",""t"":94360},{""key"":""ArrowRight"",""event"":""keydown"",""t"":94391},{""key"":""ArrowRight"",""event"":""keydown"",""t"":94421},{""key"":""ArrowRight"",""event"":""keydown"",""t"":94468},{""key"":""ArrowRight"",""event"":""keydown"",""t"":94502},{""key"":""ArrowRight"",""event"":""keydown"",""t"":94533},{""key"":""ArrowRight"",""event"":""keydown"",""t"":94565},{""key"":""ArrowRight"",""event"":""keydown"",""t"":94598},{""key"":""ArrowRight"",""event"":""keydown"",""t"":94628},{""key"":""ArrowRight"",""event"":""keydown"",""t"":94659},{""key"":""ArrowRight"",""event"":""keydown"",""t"":94690},{""key"":""ArrowRight"",""event"":""keydown"",""t"":94721},{""key"":""ArrowUp"",""event"":""keyup"",""t"":94735},{""key"":""ArrowLeft"",""event"":""keydown"",""t"":94735},{""key"":""ArrowRight"",""event"":""keyup"",""t"":94757},{""key"":""ArrowDown"",""event"":""keydown"",""t"":95077},{""key"":""ArrowLeft"",""event"":""keyup"",""t"":95405},{""key"":""ArrowLeft"",""event"":""keydown"",""t"":95470},{""key"":""ArrowDown"",""event"":""keyup"",""t"":95551},{""key"":""ArrowLeft"",""event"":""keydown"",""t"":96056},{""key"":""ArrowLeft"",""event"":""keydown"",""t"":96089},{""key"":""ArrowLeft"",""event"":""keydown"",""t"":96120},{""key"":""ArrowLeft"",""event"":""keydown"",""t"":96152},{""key"":""ArrowLeft"",""event"":""keydown"",""t"":96185},{""key"":""ArrowLeft"",""event"":""keydown"",""t"":96217},{""key"":""ArrowUp"",""event"":""keydown"",""t"":96247},{""key"":""ArrowLeft"",""event"":""keyup"",""t"":96269},{""key"":""ArrowRight"",""event"":""keydown"",""t"":96557},{""key"":""ArrowUp"",""event"":""keyup"",""t"":96877},{""key"":""ArrowUp"",""event"":""keydown"",""t"":97325},{""key"":""ArrowRight"",""event"":""keyup"",""t"":97477},{""key"":""ArrowLeft"",""event"":""keydown"",""t"":97621},{""key"":""ArrowLeft"",""event"":""keyup"",""t"":97838},{""key"":""ArrowRight"",""event"":""keydown"",""t"":97861},{""key"":""ArrowRight"",""event"":""keydown"",""t"":98377},{""key"":""ArrowRight"",""event"":""keydown"",""t"":98408},{""key"":""ArrowRight"",""event"":""keydown"",""t"":98439},{""key"":""ArrowRight"",""event"":""keydown"",""t"":98470},{""key"":""ArrowRight"",""event"":""keydown"",""t"":98503},{""key"":""ArrowRight"",""event"":""keydown"",""t"":98534},{""key"":""ArrowRight"",""event"":""keydown"",""t"":98565},{""key"":""ArrowRight"",""event"":""keydown"",""t"":98593},{""key"":""ArrowRight"",""event"":""keydown"",""t"":98640},{""key"":""ArrowRight"",""event"":""keyup"",""t"":98664},{""key"":""ArrowLeft"",""event"":""keydown"",""t"":98664},{""key"":""ArrowUp"",""event"":""keyup"",""t"":98677},{""key"":""ArrowUp"",""event"":""keydown"",""t"":98789},{""key"":""ArrowLeft"",""event"":""keyup"",""t"":98831},{""key"":""ArrowUp"",""event"":""keyup"",""t"":99029},{""key"":""ArrowLeft"",""event"":""keydown"",""t"":99182},{""key"":""ArrowLeft"",""event"":""keyup"",""t"":99405},{""key"":""ArrowDown"",""event"":""keydown"",""t"":99525},{""key"":""ArrowDown"",""event"":""keyup"",""t"":99853},{""key"":""ArrowUp"",""event"":""keydown"",""t"":100286},{""key"":""ArrowUp"",""event"":""keydown"",""t"":100799},{""key"":""ArrowUp"",""event"":""keydown"",""t"":100831},{""key"":""ArrowUp"",""event"":""keyup"",""t"":100854},{""key"":""ArrowUp"",""event"":""keydown"",""t"":101277},{""key"":""ArrowRight"",""event"":""keydown"",""t"":101637},{""key"":""ArrowRight"",""event"":""keydown"",""t"":102143},{""key"":""ArrowRight"",""event"":""keyup"",""t"":102150},{""key"":""ArrowLeft"",""event"":""keydown"",""t"":102150},{""key"":""ArrowLeft"",""event"":""keyup"",""t"":102406},{""key"":""ArrowRight"",""event"":""keydown"",""t"":102406},{""key"":""ArrowUp"",""event"":""keyup"",""t"":102798},{""key"":""ArrowDown"",""event"":""keydown"",""t"":103157},{""key"":""ArrowRight"",""event"":""keyup"",""t"":103367},{""key"":""ArrowDown"",""event"":""keyup"",""t"":103382},{""key"":""ArrowRight"",""event"":""keydown"",""t"":104109},{""key"":""ArrowRight"",""event"":""keydown"",""t"":104614},{""key"":""ArrowRight"",""event"":""keydown"",""t"":104645},{""key"":""ArrowRight"",""event"":""keyup"",""t"":104653},{""key"":""ArrowRight"",""event"":""keydown"",""t"":104821},{""key"":""ArrowRight"",""event"":""keyup"",""t"":105021},{""key"":""ArrowRight"",""event"":""keydown"",""t"":105518},{""key"":""ArrowRight"",""event"":""keydown"",""t"":106024},{""key"":""ArrowUp"",""event"":""keydown"",""t"":106053},{""key"":""ArrowUp"",""event"":""keyup"",""t"":106222},{""key"":""ArrowRight"",""event"":""keyup"",""t"":106605},{""key"":""ArrowRight"",""event"":""keydown"",""t"":107077},{""key"":""ArrowRight"",""event"":""keyup"",""t"":107214},{""key"":""ArrowDown"",""event"":""keydown"",""t"":107647},{""key"":""ArrowDown"",""event"":""keyup"",""t"":107861},{""key"":""Enter"",""event"":""keydown"",""t"":112093}]","[]"
"475996","","{""creativity-rating"":5,""creativity-free-response"":""I enjoyed playing this, lol. It was simple and fun. At first, I wasn't quite sure what it was about, but I soon realized it was a puzzle, and I liked the way it was designed."",""originality-rating"":3,""originality-free-response"":""The puzzle model is classic, but its originality lies in the practical simplicity of completing the challenge, even though it seems very simple most of the time. "",""effectiveness-rating"":4,""effectiveness-free-response"":""The game was really fun, I really enjoyed playing it, I liked it more than the first game. Very entertaining."",""authenticity-rating"":4,""attention-check"":3,""intentionality-rating"":4,""authenticity-intentionality-free-response"":""Classic game model, widely used style, but the creator managed to add his own touch to this game, making it quite authentic, even though there are many others of the same style.""}","evaluation-gemini-6-redact","survey","8","1757843","0.0-8.0","69129a44e90ae61a87c472fd","6987c292780adf01bb926159","69a123b7c84f963e7490bd88","","","","",""
"41467","","{""concept-creativity-rating"":4,""concept-implementation-rating"":4,""question1"":null}","concept-gemini-6-redact","survey","9","1799343","0.0-9.0","69129a44e90ae61a87c472fd","6987c292780adf01bb926159","69a123b7c84f963e7490bd88","","","","",""
"13379","You have completed your evaluation of the second video game.<br><br>Press any key to proceed to the final game.","enter","pre-game-three-message","html-keyboard-response","10","1812724","0.0-10.0","69129a44e90ae61a87c472fd","6987c292780adf01bb926159","69a123b7c84f963e7490bd88","","","","",""
"155712","","","game-chat-5-glider","plugin-game-iframe","11","1968478","0.0-11.0","69129a44e90ae61a87c472fd","6987c292780adf01bb926159","69a123b7c84f963e7490bd88","game-complete","{""result"":""win"",""finishTimeMs"":129198.96999999735,""bumps"":0,""resonanceCount"":5}","null","[{""key"":""Enter"",""event"":""keyup"",""t"":54},{""key"":""Enter"",""event"":""keydown"",""t"":9271},{""key"":""Enter"",""event"":""keyup"",""t"":9349},{""key"":""d"",""event"":""keydown"",""t"":11975},{""key"":""d"",""event"":""keyup"",""t"":12079},{""key"":""ArrowRight"",""event"":""keydown"",""t"":13314},{""key"":""ArrowRight"",""event"":""keyup"",""t"":13463},{""key"":""d"",""event"":""keydown"",""t"":14512},{""key"":""d"",""event"":""keyup"",""t"":14783},{""key"":""a"",""event"":""keydown"",""t"":14935},{""key"":""a"",""event"":""keyup"",""t"":15238},{""key"":""s"",""event"":""keydown"",""t"":15239},{""key"":""s"",""event"":""keyup"",""t"":15406},{""key"":""ArrowUp"",""event"":""keydown"",""t"":15518},{""key"":""ArrowUp"",""event"":""keyup"",""t"":15815},{""key"":""Enter"",""event"":""keydown"",""t"":155702}]","[]"
"533757","","{""creativity-rating"":3,""creativity-free-response"":""The game somehow seemed a little similar to the first game to me, with the main objective being to control some ‘object’ and overcome obstacles to reach a final goal. The gameplay is very similar, but the game's definition may be different."",""originality-rating"":3,""originality-free-response"":""The mechanics of the game seemed very similar to the first game, including very similar objectives. The theme makes the game different, and the aesthetics make it very enjoyable to play."",""effectiveness-rating"":3,""effectiveness-free-response"":""I liked the game, mainly because of its theme and also because it is beautiful and aesthetically pleasing. I thought it was better than the first game, which has similar gameplay."",""authenticity-rating"":3,""attention-check"":3,""intentionality-rating"":4,""authenticity-intentionality-free-response"":""The creator's intention seems quite clear and is reflected in the game. The game has its own way of being authentic, although it is important to note that the game style is classic and widely used.""}","evaluation-chat-5-glider","survey","12","2502366","0.0-12.0","69129a44e90ae61a87c472fd","6987c292780adf01bb926159","69a123b7c84f963e7490bd88","","","","",""
"35387","","{""concept-creativity-rating"":3,""concept-implementation-rating"":4,""question1"":null}","concept-chat-5-glider","survey","13","2537789","0.0-13.0","69129a44e90ae61a87c472fd","6987c292780adf01bb926159","69a123b7c84f963e7490bd88","","","","",""
"7376","You have completed all of the games!<br><br>Press any key to proceed to some final questions before returning to Prolific.","enter","pre-baseline-questions","html-keyboard-response","14","2545167","0.0-14.0","69129a44e90ae61a87c472fd","6987c292780adf01bb926159","69a123b7c84f963e7490bd88","","","","",""
"41426","","{""baseline_originality_rating"":3,""baseline_effectiveness_rating"":4,""baseline_authenticity_rating"":4,""baseline_intentionality_rating"":4}","baseline-questions-rating","survey","15","2586628","0.0-15.0","69129a44e90ae61a87c472fd","6987c292780adf01bb926159","69a123b7c84f963e7490bd88","","","","",""
"125306","","{""ai_aware_question"":""No, I only analyzed what I saw and how I felt while playing the games. Whether or not it was generated by AI was not taken into consideration.""}","ai-aware-question","survey","16","2711956","0.0-16.0","69129a44e90ae61a87c472fd","6987c292780adf01bb926159","69a123b7c84f963e7490bd88","","","","",""
"13463","
        <p> You have completed the experiment! Press any key to save your data and get redirected back to Prolific. <strong>Please do not close the page until you have been redirected to Prolific.</strong> <p>
      ","enter","goodbye","html-keyboard-response","17","2725420","0.0-17.0","69129a44e90ae61a87c472fd","6987c292780adf01bb926159","69a123b7c84f963e7490bd88","","","","",""
