"rt","stimulus","response","phase","trial_type","trial_index","time_elapsed","internal_node_id","prolific_subject_id","study_id","session_id","exit_reason","game_data","emergency_text","keystrokes","mouse_events"
"16738","Welcome!<br><br>In this study, you will play three short video games that were generated by Artificial Intelligence (AI) and complete a short survey after each game.<br><br>Please make sure you are in a quiet environment where you can focus for the duration of the study. Some games may use sound, so please ensure that your device's volume is not muted.<br><br>Press any key to begin.","arrowup","welcome-message","html-keyboard-response","0","16745","0.0-0.0","66b93f99d7c07d8558f67c5c","6987c292780adf01bb926159","69a1f7191075ebc2bad6ad05","","","","",""
"8092","","{""commitment-check"":[""yes""]}","commitment-check","survey","1","24865","0.0-1.0","66b93f99d7c07d8558f67c5c","6987c292780adf01bb926159","69a1f7191075ebc2bad6ad05","","","","",""
"1182","Press any key to proceed to the first video game.","arrowup","pre-game-one-message","html-keyboard-response","2","26047","0.0-2.0","66b93f99d7c07d8558f67c5c","6987c292780adf01bb926159","69a1f7191075ebc2bad6ad05","","","","",""
"85358","","","game-gemini-3-suture","plugin-game-iframe","3","111492","0.0-3.0","66b93f99d7c07d8558f67c5c","6987c292780adf01bb926159","69a1f7191075ebc2bad6ad05","game-complete","{""result"":""win"",""levelsCompleted"":1608}","null","[{""key"":""ArrowUp"",""event"":""keyup"",""t"":78},{""key"":""ArrowRight"",""event"":""keydown"",""t"":10123},{""key"":""ArrowRight"",""event"":""keyup"",""t"":10240},{""key"":""ArrowRight"",""event"":""keydown"",""t"":10514},{""key"":""ArrowRight"",""event"":""keyup"",""t"":10601},{""key"":""ArrowRight"",""event"":""keydown"",""t"":13989},{""key"":""ArrowRight"",""event"":""keydown"",""t"":14489},{""key"":""ArrowRight"",""event"":""keydown"",""t"":14522},{""key"":""ArrowRight"",""event"":""keydown"",""t"":14556},{""key"":""ArrowRight"",""event"":""keydown"",""t"":14588},{""key"":""ArrowRight"",""event"":""keydown"",""t"":14622},{""key"":""ArrowRight"",""event"":""keydown"",""t"":14654},{""key"":""ArrowRight"",""event"":""keydown"",""t"":14687},{""key"":""ArrowRight"",""event"":""keydown"",""t"":14720},{""key"":""ArrowRight"",""event"":""keydown"",""t"":14753},{""key"":""ArrowRight"",""event"":""keydown"",""t"":14787},{""key"":""ArrowRight"",""event"":""keydown"",""t"":14820},{""key"":""ArrowRight"",""event"":""keydown"",""t"":14852},{""key"":""ArrowRight"",""event"":""keydown"",""t"":14885},{""key"":""ArrowRight"",""event"":""keydown"",""t"":14918},{""key"":""ArrowRight"",""event"":""keydown"",""t"":14952},{""key"":""ArrowRight"",""event"":""keydown"",""t"":14985},{""key"":""ArrowRight"",""event"":""keydown"",""t"":15017},{""key"":""ArrowRight"",""event"":""keydown"",""t"":15050},{""key"":""ArrowRight"",""event"":""keydown"",""t"":15083},{""key"":""ArrowRight"",""event"":""keydown"",""t"":15116},{""key"":""ArrowRight"",""event"":""keydown"",""t"":15150},{""key"":""ArrowRight"",""event"":""keydown"",""t"":15183},{""key"":""ArrowRight"",""event"":""keyup"",""t"":15194},{""key"":""Alt"",""event"":""keyup"",""t"":43072},{""key"":""Alt"",""event"":""keyup"",""t"":43072},{""key"":""Control"",""event"":""keyup"",""t"":43072},{""key"":""Control"",""event"":""keyup"",""t"":43072},{""key"":""Shift"",""event"":""keyup"",""t"":43072},{""key"":""Shift"",""event"":""keyup"",""t"":43072},{""key"":""ArrowLeft"",""event"":""keydown"",""t"":47326},{""key"":""ArrowLeft"",""event"":""keyup"",""t"":47550},{""key"":""ArrowUp"",""event"":""keydown"",""t"":47552},{""key"":""ArrowRight"",""event"":""keydown"",""t"":47866},{""key"":""ArrowRight"",""event"":""keyup"",""t"":48026},{""key"":""ArrowUp"",""event"":""keyup"",""t"":48150},{""key"":""ArrowUp"",""event"":""keydown"",""t"":48304},{""key"":""ArrowRight"",""event"":""keydown"",""t"":48414},{""key"":""ArrowUp"",""event"":""keyup"",""t"":48482},{""key"":""ArrowRight"",""event"":""keydown"",""t"":48981},{""key"":""ArrowRight"",""event"":""keydown"",""t"":49014},{""key"":""ArrowRight"",""event"":""keydown"",""t"":49048},{""key"":""ArrowRight"",""event"":""keydown"",""t"":49080},{""key"":""ArrowRight"",""event"":""keydown"",""t"":49113},{""key"":""ArrowRight"",""event"":""keydown"",""t"":49146},{""key"":""ArrowRight"",""event"":""keydown"",""t"":49179},{""key"":""ArrowRight"",""event"":""keydown"",""t"":49213},{""key"":""ArrowRight"",""event"":""keydown"",""t"":49245},{""key"":""ArrowRight"",""event"":""keydown"",""t"":49279},{""key"":""ArrowRight"",""event"":""keydown"",""t"":49312},{""key"":""ArrowRight"",""event"":""keydown"",""t"":49345},{""key"":""ArrowRight"",""event"":""keydown"",""t"":49378},{""key"":""ArrowRight"",""event"":""keydown"",""t"":49410},{""key"":""ArrowRight"",""event"":""keydown"",""t"":49443},{""key"":""ArrowRight"",""event"":""keydown"",""t"":49476},{""key"":""ArrowRight"",""event"":""keydown"",""t"":49510},{""key"":""ArrowRight"",""event"":""keydown"",""t"":49543},{""key"":""ArrowRight"",""event"":""keydown"",""t"":49576},{""key"":""ArrowRight"",""event"":""keydown"",""t"":49608},{""key"":""ArrowRight"",""event"":""keydown"",""t"":49642},{""key"":""ArrowRight"",""event"":""keydown"",""t"":49675},{""key"":""ArrowRight"",""event"":""keydown"",""t"":49708},{""key"":""ArrowRight"",""event"":""keydown"",""t"":49740},{""key"":""ArrowRight"",""event"":""keydown"",""t"":49774},{""key"":""ArrowRight"",""event"":""keydown"",""t"":49807},{""key"":""ArrowRight"",""event"":""keydown"",""t"":49839},{""key"":""ArrowRight"",""event"":""keydown"",""t"":49873},{""key"":""ArrowRight"",""event"":""keyup"",""t"":49887},{""key"":""ArrowUp"",""event"":""keydown"",""t"":50096},{""key"":""ArrowUp"",""event"":""keyup"",""t"":50242},{""key"":""ArrowRight"",""event"":""keydown"",""t"":50481},{""key"":""ArrowRight"",""event"":""keyup"",""t"":50778},{""key"":""ArrowRight"",""event"":""keydown"",""t"":51266},{""key"":""ArrowRight"",""event"":""keyup"",""t"":51360},{""key"":""ArrowRight"",""event"":""keydown"",""t"":51881},{""key"":""ArrowRight"",""event"":""keyup"",""t"":51942},{""key"":""ArrowUp"",""event"":""keydown"",""t"":78740},{""key"":""ArrowUp"",""event"":""keyup"",""t"":78916},{""key"":""Enter"",""event"":""keydown"",""t"":85337}]","[]"
"301695","","{""creativity-rating"":3,""creativity-free-response"":""I cant really explain if it was creative or not because there was no explanation as to what I was meant to be doing. Im not sure  what \""cut space\"" meant "",""originality-rating"":3,""originality-free-response"":""Again, there was no explanation as to what \""cut space\"" meant so I didnt know what I was meant to be doing. Getting something from A to B isnt really that original, and \""cutting space\"" didnt seem to do much, as it was either too small or not effective. "",""effectiveness-rating"":2,""effectiveness-free-response"":""Not enjoyable. As there was no actual explanation as to what I was meant to be doing, I was left confused and did not have fun playing it. "",""authenticity-rating"":3,""attention-check"":3,""intentionality-rating"":2,""authenticity-intentionality-free-response"":""Getting something from A to B is not original, and the \""cut space\"" gimmick wasn't really enjoyable, and didnt really show much in the way of effort. ""}","evaluation-gemini-3-suture","survey","4","413225","0.0-4.0","66b93f99d7c07d8558f67c5c","6987c292780adf01bb926159","69a1f7191075ebc2bad6ad05","","","","",""
"51653","","{""concept-creativity-rating"":3,""concept-implementation-rating"":3,""question1"":null}","concept-gemini-3-suture","survey","5","464896","0.0-5.0","66b93f99d7c07d8558f67c5c","6987c292780adf01bb926159","69a1f7191075ebc2bad6ad05","","","","",""
"1973","You have completed your evaluation of the first video game.<br><br>Press any key to proceed to the second game.","arrowup","pre-game-two-message","html-keyboard-response","6","466870","0.0-6.0","66b93f99d7c07d8558f67c5c","6987c292780adf01bb926159","69a1f7191075ebc2bad6ad05","","","","",""
"118640","","","game-claude-4-decibel","plugin-game-iframe","7","585523","0.0-7.0","66b93f99d7c07d8558f67c5c","6987c292780adf01bb926159","69a1f7191075ebc2bad6ad05","game-complete","{""result"":""win"",""finalScore"":1328,""instrumentsSilenced"":4,""elapsedTime"":96304.38666668914}","null","[{""key"":""ArrowUp"",""event"":""keyup"",""t"":86},{""key"":"" "",""event"":""keydown"",""t"":14052},{""key"":"" "",""event"":""keyup"",""t"":14149},{""key"":""d"",""event"":""keydown"",""t"":15665},{""key"":""d"",""event"":""keyup"",""t"":15847},{""key"":""a"",""event"":""keydown"",""t"":15994},{""key"":""w"",""event"":""keydown"",""t"":16270},{""key"":""a"",""event"":""keyup"",""t"":16722},{""key"":""w"",""event"":""keyup"",""t"":16839},{""key"":""a"",""event"":""keydown"",""t"":17041},{""key"":"" "",""event"":""keydown"",""t"":17346},{""key"":""a"",""event"":""keyup"",""t"":17360},{""key"":"" "",""event"":""keydown"",""t"":17856},{""key"":"" "",""event"":""keydown"",""t"":17888},{""key"":"" "",""event"":""keydown"",""t"":17921},{""key"":"" "",""event"":""keydown"",""t"":17956},{""key"":"" "",""event"":""keyup"",""t"":17978},{""key"":""d"",""event"":""keydown"",""t"":18096},{""key"":""d"",""event"":""keyup"",""t"":18407},{""key"":""a"",""event"":""keydown"",""t"":18487},{""key"":""a"",""event"":""keyup"",""t"":18740},{""key"":"" "",""event"":""keydown"",""t"":18818},{""key"":"" "",""event"":""keyup"",""t"":18915},{""key"":""d"",""event"":""keydown"",""t"":19380},{""key"":""d"",""event"":""keyup"",""t"":19615},{""key"":""a"",""event"":""keydown"",""t"":19715},{""key"":""a"",""event"":""keyup"",""t"":19844},{""key"":"" "",""event"":""keydown"",""t"":20903},{""key"":"" "",""event"":""keyup"",""t"":20999},{""key"":""w"",""event"":""keydown"",""t"":21650},{""key"":""w"",""event"":""keyup"",""t"":21866},{""key"":"" "",""event"":""keydown"",""t"":22147},{""key"":"" "",""event"":""keyup"",""t"":22229},{""key"":""w"",""event"":""keydown"",""t"":22826},{""key"":""w"",""event"":""keyup"",""t"":22914},{""key"":"" "",""event"":""keydown"",""t"":23279},{""key"":"" "",""event"":""keyup"",""t"":23310},{""key"":""w"",""event"":""keydown"",""t"":24123},{""key"":""w"",""event"":""keyup"",""t"":24220},{""key"":"" "",""event"":""keydown"",""t"":24421},{""key"":"" "",""event"":""keyup"",""t"":24512},{""key"":""a"",""event"":""keydown"",""t"":25060},{""key"":""a"",""event"":""keyup"",""t"":25131},{""key"":"" "",""event"":""keydown"",""t"":25659},{""key"":"" "",""event"":""keyup"",""t"":25734},{""key"":""w"",""event"":""keydown"",""t"":26182},{""key"":""w"",""event"":""keyup"",""t"":26268},{""key"":""a"",""event"":""keydown"",""t"":26443},{""key"":""a"",""event"":""keyup"",""t"":26501},{""key"":"" "",""event"":""keydown"",""t"":26915},{""key"":"" "",""event"":""keyup"",""t"":27005},{""key"":""s"",""event"":""keydown"",""t"":27734},{""key"":""s"",""event"":""keyup"",""t"":27886},{""key"":""s"",""event"":""keydown"",""t"":28166},{""key"":""s"",""event"":""keydown"",""t"":28666},{""key"":""s"",""event"":""keydown"",""t"":28700},{""key"":""s"",""event"":""keydown"",""t"":28734},{""key"":""s"",""event"":""keydown"",""t"":28765},{""key"":""s"",""event"":""keydown"",""t"":28799},{""key"":""s"",""event"":""keydown"",""t"":28831},{""key"":""s"",""event"":""keydown"",""t"":28866},{""key"":""s"",""event"":""keydown"",""t"":28897},{""key"":""s"",""event"":""keydown"",""t"":28930},{""key"":""s"",""event"":""keydown"",""t"":28963},{""key"":""s"",""event"":""keydown"",""t"":28997},{""key"":""s"",""event"":""keydown"",""t"":29029},{""key"":""s"",""event"":""keydown"",""t"":29062},{""key"":""s"",""event"":""keydown"",""t"":29096},{""key"":""s"",""event"":""keydown"",""t"":29130},{""key"":""s"",""event"":""keydown"",""t"":29161},{""key"":""a"",""event"":""keydown"",""t"":29172},{""key"":""a"",""event"":""keyup"",""t"":29313},{""key"":""a"",""event"":""keydown"",""t"":29634},{""key"":""a"",""event"":""keyup"",""t"":29811},{""key"":""s"",""event"":""keyup"",""t"":29905},{""key"":"" "",""event"":""keydown"",""t"":30325},{""key"":"" "",""event"":""keyup"",""t"":30387},{""key"":""a"",""event"":""keydown"",""t"":30918},{""key"":""a"",""event"":""keyup"",""t"":31008},{""key"":"" "",""event"":""keydown"",""t"":31776},{""key"":"" "",""event"":""keyup"",""t"":31868},{""key"":""w"",""event"":""keydown"",""t"":32234},{""key"":""d"",""event"":""keydown"",""t"":32324},{""key"":""w"",""event"":""keyup"",""t"":32339},{""key"":""d"",""event"":""keyup"",""t"":32429},{""key"":"" "",""event"":""keydown"",""t"":32936},{""key"":"" "",""event"":""keyup"",""t"":33029},{""key"":""d"",""event"":""keydown"",""t"":33300},{""key"":""d"",""event"":""keyup"",""t"":33393},{""key"":""w"",""event"":""keydown"",""t"":33744},{""key"":""w"",""event"":""keyup"",""t"":33833},{""key"":"" "",""event"":""keydown"",""t"":34153},{""key"":"" "",""event"":""keyup"",""t"":34248},{""key"":""a"",""event"":""keydown"",""t"":35062},{""key"":""a"",""event"":""keyup"",""t"":35167},{""key"":""s"",""event"":""keydown"",""t"":35283},{""key"":""s"",""event"":""keyup"",""t"":35387},{""key"":"" "",""event"":""keydown"",""t"":35452},{""key"":"" "",""event"":""keyup"",""t"":35502},{""key"":"" "",""event"":""keydown"",""t"":36192},{""key"":"" "",""event"":""keyup"",""t"":36273},{""key"":""d"",""event"":""keydown"",""t"":36605},{""key"":""d"",""event"":""keyup"",""t"":36694},{""key"":"" "",""event"":""keydown"",""t"":37155},{""key"":"" "",""event"":""keyup"",""t"":37217},{""key"":""d"",""event"":""keydown"",""t"":37807},{""key"":""d"",""event"":""keyup"",""t"":37936},{""key"":""s"",""event"":""keydown"",""t"":38311},{""key"":""s"",""event"":""keyup"",""t"":38387},{""key"":"" "",""event"":""keydown"",""t"":38415},{""key"":"" "",""event"":""keyup"",""t"":38515},{""key"":""w"",""event"":""keydown"",""t"":38923},{""key"":""w"",""event"":""keyup"",""t"":38974},{""key"":"" "",""event"":""keydown"",""t"":39484},{""key"":"" "",""event"":""keyup"",""t"":39584},{""key"":""d"",""event"":""keydown"",""t"":40034},{""key"":""w"",""event"":""keydown"",""t"":40153},{""key"":""w"",""event"":""keyup"",""t"":40381},{""key"":""d"",""event"":""keyup"",""t"":41158},{""key"":""d"",""event"":""keydown"",""t"":41262},{""key"":""d"",""event"":""keyup"",""t"":41564},{""key"":""d"",""event"":""keydown"",""t"":41825},{""key"":""d"",""event"":""keyup"",""t"":41922},{""key"":"" "",""event"":""keydown"",""t"":42220},{""key"":"" "",""event"":""keyup"",""t"":42310},{""key"":"" "",""event"":""keydown"",""t"":42797},{""key"":"" "",""event"":""keyup"",""t"":42894},{""key"":"" "",""event"":""keydown"",""t"":43540},{""key"":"" "",""event"":""keyup"",""t"":43666},{""key"":""d"",""event"":""keydown"",""t"":44339},{""key"":""w"",""event"":""keydown"",""t"":44477},{""key"":""d"",""event"":""keyup"",""t"":44519},{""key"":""w"",""event"":""keyup"",""t"":44570},{""key"":"" "",""event"":""keydown"",""t"":45241},{""key"":"" "",""event"":""keyup"",""t"":45325},{""key"":"" "",""event"":""keydown"",""t"":45422},{""key"":"" "",""event"":""keyup"",""t"":45498},{""key"":"" "",""event"":""keydown"",""t"":45583},{""key"":"" "",""event"":""keyup"",""t"":45686},{""key"":"" "",""event"":""keydown"",""t"":45776},{""key"":"" "",""event"":""keyup"",""t"":45853},{""key"":"" "",""event"":""keydown"",""t"":45950},{""key"":"" "",""event"":""keyup"",""t"":46037},{""key"":"" "",""event"":""keydown"",""t"":46123},{""key"":"" "",""event"":""keyup"",""t"":46202},{""key"":"" "",""event"":""keydown"",""t"":46297},{""key"":"" "",""event"":""keyup"",""t"":46380},{""key"":"" "",""event"":""keydown"",""t"":46474},{""key"":"" "",""event"":""keyup"",""t"":46568},{""key"":"" "",""event"":""keydown"",""t"":46651},{""key"":"" "",""event"":""keyup"",""t"":46748},{""key"":"" "",""event"":""keydown"",""t"":46842},{""key"":"" "",""event"":""keyup"",""t"":46949},{""key"":""d"",""event"":""keydown"",""t"":47234},{""key"":""d"",""event"":""keyup"",""t"":47327},{""key"":""a"",""event"":""keydown"",""t"":47828},{""key"":""a"",""event"":""keyup"",""t"":47881},{""key"":"" "",""event"":""keydown"",""t"":48067},{""key"":"" "",""event"":""keyup"",""t"":48172},{""key"":""d"",""event"":""keydown"",""t"":48506},{""key"":""d"",""event"":""keyup"",""t"":48588},{""key"":"" "",""event"":""keydown"",""t"":49272},{""key"":"" "",""event"":""keyup"",""t"":49388},{""key"":""d"",""event"":""keydown"",""t"":49943},{""key"":""d"",""event"":""keyup"",""t"":49979},{""key"":""s"",""event"":""keydown"",""t"":50069},{""key"":""s"",""event"":""keyup"",""t"":50158},{""key"":"" "",""event"":""keydown"",""t"":50527},{""key"":"" "",""event"":""keyup"",""t"":50623},{""key"":"" "",""event"":""keydown"",""t"":51224},{""key"":"" "",""event"":""keyup"",""t"":51291},{""key"":"" "",""event"":""keydown"",""t"":51806},{""key"":"" "",""event"":""keyup"",""t"":51902},{""key"":"" "",""event"":""keydown"",""t"":52547},{""key"":"" "",""event"":""keyup"",""t"":52624},{""key"":"" "",""event"":""keydown"",""t"":54001},{""key"":"" "",""event"":""keyup"",""t"":54076},{""key"":""s"",""event"":""keydown"",""t"":54347},{""key"":""s"",""event"":""keyup"",""t"":54418},{""key"":"" "",""event"":""keydown"",""t"":55179},{""key"":"" "",""event"":""keyup"",""t"":55272},{""key"":""s"",""event"":""keydown"",""t"":55556},{""key"":""s"",""event"":""keyup"",""t"":55637},{""key"":""d"",""event"":""keydown"",""t"":55728},{""key"":""d"",""event"":""keyup"",""t"":55790},{""key"":"" "",""event"":""keydown"",""t"":56319},{""key"":"" "",""event"":""keyup"",""t"":56437},{""key"":""a"",""event"":""keydown"",""t"":56853},{""key"":""a"",""event"":""keyup"",""t"":56915},{""key"":""d"",""event"":""keydown"",""t"":57222},{""key"":""d"",""event"":""keyup"",""t"":57272},{""key"":"" "",""event"":""keydown"",""t"":57576},{""key"":"" "",""event"":""keyup"",""t"":57679},{""key"":""s"",""event"":""keydown"",""t"":58014},{""key"":""s"",""event"":""keyup"",""t"":58098},{""key"":"" "",""event"":""keydown"",""t"":58783},{""key"":"" "",""event"":""keyup"",""t"":58898},{""key"":""a"",""event"":""keydown"",""t"":59215},{""key"":""a"",""event"":""keyup"",""t"":59283},{""key"":"" "",""event"":""keydown"",""t"":59978},{""key"":"" "",""event"":""keyup"",""t"":60089},{""key"":"" "",""event"":""keydown"",""t"":61263},{""key"":"" "",""event"":""keyup"",""t"":61367},{""key"":""s"",""event"":""keydown"",""t"":61771},{""key"":""s"",""event"":""keyup"",""t"":61849},{""key"":""a"",""event"":""keydown"",""t"":62064},{""key"":""a"",""event"":""keyup"",""t"":62134},{""key"":""a"",""event"":""keydown"",""t"":65180},{""key"":""a"",""event"":""keyup"",""t"":65236},{""key"":""s"",""event"":""keydown"",""t"":65419},{""key"":""s"",""event"":""keyup"",""t"":65485},{""key"":"" "",""event"":""keydown"",""t"":65537},{""key"":"" "",""event"":""keyup"",""t"":65589},{""key"":""w"",""event"":""keydown"",""t"":65951},{""key"":""w"",""event"":""keyup"",""t"":66030},{""key"":"" "",""event"":""keydown"",""t"":66520},{""key"":"" "",""event"":""keyup"",""t"":66619},{""key"":""w"",""event"":""keydown"",""t"":67985},{""key"":""w"",""event"":""keydown"",""t"":68484},{""key"":""w"",""event"":""keydown"",""t"":68519},{""key"":""w"",""event"":""keydown"",""t"":68550},{""key"":""w"",""event"":""keydown"",""t"":68583},{""key"":""w"",""event"":""keydown"",""t"":68617},{""key"":""w"",""event"":""keydown"",""t"":68652},{""key"":""w"",""event"":""keydown"",""t"":68682},{""key"":""w"",""event"":""keydown"",""t"":68715},{""key"":""w"",""event"":""keydown"",""t"":68748},{""key"":""w"",""event"":""keydown"",""t"":68784},{""key"":""w"",""event"":""keydown"",""t"":68814},{""key"":""w"",""event"":""keydown"",""t"":68847},{""key"":""w"",""event"":""keydown"",""t"":68881},{""key"":""w"",""event"":""keydown"",""t"":68915},{""key"":""w"",""event"":""keydown"",""t"":68946},{""key"":""w"",""event"":""keydown"",""t"":68979},{""key"":""w"",""event"":""keydown"",""t"":69012},{""key"":""w"",""event"":""keydown"",""t"":69048},{""key"":""w"",""event"":""keydown"",""t"":69078},{""key"":""w"",""event"":""keydown"",""t"":69111},{""key"":""w"",""event"":""keydown"",""t"":69144},{""key"":""w"",""event"":""keydown"",""t"":69180},{""key"":""w"",""event"":""keydown"",""t"":69210},{""key"":""w"",""event"":""keydown"",""t"":69243},{""key"":""w"",""event"":""keydown"",""t"":69276},{""key"":""w"",""event"":""keydown"",""t"":69312},{""key"":""w"",""event"":""keydown"",""t"":69343},{""key"":""w"",""event"":""keydown"",""t"":69375},{""key"":""w"",""event"":""keydown"",""t"":69408},{""key"":""w"",""event"":""keydown"",""t"":69443},{""key"":""w"",""event"":""keydown"",""t"":69474},{""key"":""w"",""event"":""keydown"",""t"":69507},{""key"":""w"",""event"":""keydown"",""t"":69541},{""key"":""w"",""event"":""keydown"",""t"":69575},{""key"":""w"",""event"":""keydown"",""t"":69606},{""key"":""w"",""event"":""keydown"",""t"":69639},{""key"":""a"",""event"":""keydown"",""t"":69646},{""key"":""a"",""event"":""keyup"",""t"":69715},{""key"":""w"",""event"":""keyup"",""t"":69741},{""key"":""w"",""event"":""keydown"",""t"":69987},{""key"":""a"",""event"":""keydown"",""t"":70133},{""key"":""w"",""event"":""keyup"",""t"":70148},{""key"":""a"",""event"":""keyup"",""t"":70201},{""key"":""w"",""event"":""keydown"",""t"":70516},{""key"":""w"",""event"":""keyup"",""t"":70613},{""key"":"" "",""event"":""keydown"",""t"":70846},{""key"":"" "",""event"":""keyup"",""t"":70957},{""key"":"" "",""event"":""keydown"",""t"":71561},{""key"":"" "",""event"":""keyup"",""t"":71658},{""key"":""s"",""event"":""keydown"",""t"":71889},{""key"":""s"",""event"":""keyup"",""t"":71964},{""key"":"" "",""event"":""keydown"",""t"":72079},{""key"":"" "",""event"":""keyup"",""t"":72166},{""key"":"" "",""event"":""keydown"",""t"":72680},{""key"":"" "",""event"":""keyup"",""t"":72763},{""key"":"" "",""event"":""keydown"",""t"":73221},{""key"":"" "",""event"":""keyup"",""t"":73322},{""key"":"" "",""event"":""keydown"",""t"":73756},{""key"":"" "",""event"":""keyup"",""t"":73860},{""key"":"" "",""event"":""keydown"",""t"":74536},{""key"":"" "",""event"":""keyup"",""t"":74627},{""key"":""a"",""event"":""keydown"",""t"":74943},{""key"":""a"",""event"":""keyup"",""t"":75014},{""key"":""d"",""event"":""keydown"",""t"":75492},{""key"":""d"",""event"":""keyup"",""t"":75563},{""key"":""s"",""event"":""keydown"",""t"":75723},{""key"":""s"",""event"":""keyup"",""t"":75800},{""key"":"" "",""event"":""keydown"",""t"":76311},{""key"":"" "",""event"":""keyup"",""t"":76404},{""key"":"" "",""event"":""keydown"",""t"":76985},{""key"":"" "",""event"":""keyup"",""t"":77085},{""key"":"" "",""event"":""keydown"",""t"":77729},{""key"":"" "",""event"":""keyup"",""t"":77811},{""key"":""d"",""event"":""keydown"",""t"":78996},{""key"":""d"",""event"":""keyup"",""t"":79062},{""key"":""s"",""event"":""keydown"",""t"":79154},{""key"":""s"",""event"":""keyup"",""t"":79229},{""key"":"" "",""event"":""keydown"",""t"":79819},{""key"":"" "",""event"":""keyup"",""t"":79906},{""key"":""d"",""event"":""keydown"",""t"":80562},{""key"":""d"",""event"":""keyup"",""t"":80592},{""key"":"" "",""event"":""keydown"",""t"":81721},{""key"":"" "",""event"":""keyup"",""t"":81847},{""key"":""w"",""event"":""keydown"",""t"":82148},{""key"":""w"",""event"":""keyup"",""t"":82225},{""key"":""a"",""event"":""keydown"",""t"":82493},{""key"":""a"",""event"":""keyup"",""t"":82554},{""key"":"" "",""event"":""keydown"",""t"":82979},{""key"":"" "",""event"":""keyup"",""t"":83075},{""key"":""w"",""event"":""keydown"",""t"":83951},{""key"":""w"",""event"":""keyup"",""t"":84022},{""key"":"" "",""event"":""keydown"",""t"":84583},{""key"":"" "",""event"":""keyup"",""t"":84673},{""key"":"" "",""event"":""keydown"",""t"":85795},{""key"":"" "",""event"":""keyup"",""t"":85896},{""key"":""a"",""event"":""keydown"",""t"":86207},{""key"":""a"",""event"":""keyup"",""t"":86273},{""key"":"" "",""event"":""keydown"",""t"":86960},{""key"":"" "",""event"":""keyup"",""t"":87044},{""key"":""a"",""event"":""keydown"",""t"":87585},{""key"":""a"",""event"":""keyup"",""t"":87614},{""key"":"" "",""event"":""keydown"",""t"":88137},{""key"":"" "",""event"":""keyup"",""t"":88237},{""key"":""a"",""event"":""keydown"",""t"":88578},{""key"":""a"",""event"":""keyup"",""t"":88644},{""key"":"" "",""event"":""keydown"",""t"":89406},{""key"":"" "",""event"":""keyup"",""t"":89520},{""key"":""w"",""event"":""keydown"",""t"":90284},{""key"":""w"",""event"":""keyup"",""t"":90349},{""key"":"" "",""event"":""keydown"",""t"":90813},{""key"":"" "",""event"":""keyup"",""t"":90902},{""key"":"" "",""event"":""keydown"",""t"":91411},{""key"":"" "",""event"":""keyup"",""t"":91510},{""key"":""s"",""event"":""keydown"",""t"":91715},{""key"":""s"",""event"":""keyup"",""t"":91785},{""key"":"" "",""event"":""keydown"",""t"":92357},{""key"":"" "",""event"":""keyup"",""t"":92471},{""key"":""d"",""event"":""keydown"",""t"":92719},{""key"":""d"",""event"":""keyup"",""t"":92794},{""key"":"" "",""event"":""keydown"",""t"":93635},{""key"":"" "",""event"":""keyup"",""t"":93726},{""key"":""s"",""event"":""keydown"",""t"":94118},{""key"":""s"",""event"":""keyup"",""t"":94189},{""key"":"" "",""event"":""keydown"",""t"":94856},{""key"":"" "",""event"":""keyup"",""t"":94953},{""key"":""d"",""event"":""keydown"",""t"":95339},{""key"":""d"",""event"":""keyup"",""t"":95390},{""key"":"" "",""event"":""keydown"",""t"":95958},{""key"":"" "",""event"":""keyup"",""t"":96061},{""key"":""s"",""event"":""keydown"",""t"":97404},{""key"":""s"",""event"":""keyup"",""t"":97489},{""key"":""d"",""event"":""keydown"",""t"":97805},{""key"":""d"",""event"":""keyup"",""t"":97846},{""key"":""w"",""event"":""keydown"",""t"":98785},{""key"":""w"",""event"":""keyup"",""t"":98864},{""key"":"" "",""event"":""keydown"",""t"":99586},{""key"":"" "",""event"":""keyup"",""t"":99689},{""key"":""d"",""event"":""keydown"",""t"":100399},{""key"":""d"",""event"":""keyup"",""t"":100478},{""key"":"" "",""event"":""keydown"",""t"":101084},{""key"":"" "",""event"":""keyup"",""t"":101162},{""key"":""d"",""event"":""keydown"",""t"":102507},{""key"":""d"",""event"":""keyup"",""t"":102563},{""key"":"" "",""event"":""keydown"",""t"":103201},{""key"":"" "",""event"":""keyup"",""t"":103272},{""key"":"" "",""event"":""keydown"",""t"":105048},{""key"":"" "",""event"":""keyup"",""t"":105133},{""key"":""a"",""event"":""keydown"",""t"":105492},{""key"":""a"",""event"":""keyup"",""t"":105572},{""key"":""w"",""event"":""keydown"",""t"":105926},{""key"":""w"",""event"":""keyup"",""t"":105993},{""key"":""a"",""event"":""keydown"",""t"":106492},{""key"":""a"",""event"":""keyup"",""t"":106569},{""key"":"" "",""event"":""keydown"",""t"":107412},{""key"":"" "",""event"":""keyup"",""t"":107521},{""key"":""a"",""event"":""keydown"",""t"":108131},{""key"":""a"",""event"":""keyup"",""t"":108180},{""key"":""d"",""event"":""keydown"",""t"":109661},{""key"":""d"",""event"":""keyup"",""t"":109778},{""key"":"" "",""event"":""keydown"",""t"":110341},{""key"":"" "",""event"":""keyup"",""t"":110437},{""key"":"" "",""event"":""keydown"",""t"":110967},{""key"":"" "",""event"":""keyup"",""t"":111078}]","[]"
"423436","","{""creativity-rating"":4,""creativity-free-response"":""It was creative because i have never played a game like it. "",""originality-rating"":4,""originality-free-response"":""I liked how it had the 4 quarters and I had to go to each one and get the little circle. I was surprised how difficult it was"",""effectiveness-rating"":2,""effectiveness-free-response"":""I didnt really find it that enjoyable as I felt like I was pushing spacebar at the correct time and it was saying \""miss\"""",""authenticity-rating"":4,""attention-check"":3,""intentionality-rating"":3,""authenticity-intentionality-free-response"":""It was a relatively simple game, and the fact it wasn't properly recognising when I pushed space was an issue and shows that maybe it wasnt tested properly. In saying that, it was a good challenge and felt relatively authentic""}","evaluation-claude-4-decibel","survey","8","1008984","0.0-8.0","66b93f99d7c07d8558f67c5c","6987c292780adf01bb926159","69a1f7191075ebc2bad6ad05","","","","",""
"10715","","{""concept-creativity-rating"":3,""concept-implementation-rating"":3,""question1"":null}","concept-claude-4-decibel","survey","9","1019710","0.0-9.0","66b93f99d7c07d8558f67c5c","6987c292780adf01bb926159","69a1f7191075ebc2bad6ad05","","","","",""
"23247","You have completed your evaluation of the second video game.<br><br>Press any key to proceed to the final game.","arrowup","pre-game-three-message","html-keyboard-response","10","1042958","0.0-10.0","66b93f99d7c07d8558f67c5c","6987c292780adf01bb926159","69a1f7191075ebc2bad6ad05","","","","",""
"816462","","","game-chat-6-tidepainter","plugin-game-iframe","11","1859428","0.0-11.0","66b93f99d7c07d8558f67c5c","6987c292780adf01bb926159","69a1f7191075ebc2bad6ad05","game-complete","{""result"":""win"",""shellsFilled"":3,""wavesUsed"":10}","null","[{""key"":""ArrowUp"",""event"":""keyup"",""t"":96},{""key"":""1"",""event"":""keydown"",""t"":36027},{""key"":""1"",""event"":""keyup"",""t"":36148},{""key"":""1"",""event"":""keydown"",""t"":36526},{""key"":""1"",""event"":""keydown"",""t"":37025},{""key"":""1"",""event"":""keydown"",""t"":37058},{""key"":""1"",""event"":""keydown"",""t"":37091},{""key"":""1"",""event"":""keyup"",""t"":37111},{""key"":""1"",""event"":""keydown"",""t"":37274},{""key"":""1"",""event"":""keyup"",""t"":37409},{""key"":""1"",""event"":""keydown"",""t"":37625},{""key"":""1"",""event"":""keyup"",""t"":37767},{""key"":""2"",""event"":""keydown"",""t"":91609},{""key"":""2"",""event"":""keyup"",""t"":91730},{""key"":""2"",""event"":""keydown"",""t"":91955},{""key"":""2"",""event"":""keyup"",""t"":92070},{""key"":""2"",""event"":""keydown"",""t"":93207},{""key"":""2"",""event"":""keyup"",""t"":93348}]","[]"
"141678","","{""creativity-rating"":4,""creativity-free-response"":""It was creative because I have never played anything like it and the concept was interesting"",""originality-rating"":4,""originality-free-response"":""It was original because it was like a puzzle game, but you also had a time limit and it was very difficult "",""effectiveness-rating"":3,""effectiveness-free-response"":""It was relatively enjoyable because it was difficult and figuring out what to do helped with the entertainment. It was a little frustrating because the game suggested you had to go through the coloured dots but instead you had to go past them"",""attention-check"":3,""authenticity-rating"":4,""intentionality-rating"":4,""authenticity-intentionality-free-response"":""Yes i believe there effort and intentionality was there for this game as it was difficult and had lots of different moving parts you had to consider ""}","evaluation-chat-6-tidepainter","survey","12","2001129","0.0-12.0","66b93f99d7c07d8558f67c5c","6987c292780adf01bb926159","69a1f7191075ebc2bad6ad05","","","","",""
"14105","","{""concept-creativity-rating"":4,""concept-implementation-rating"":3,""question1"":null}","concept-chat-6-tidepainter","survey","13","2015244","0.0-13.0","66b93f99d7c07d8558f67c5c","6987c292780adf01bb926159","69a1f7191075ebc2bad6ad05","","","","",""
"2028","You have completed all of the games!<br><br>Press any key to proceed to some final questions before returning to Prolific.","arrowup","pre-baseline-questions","html-keyboard-response","14","2017272","0.0-14.0","66b93f99d7c07d8558f67c5c","6987c292780adf01bb926159","69a1f7191075ebc2bad6ad05","","","","",""
"12006","","{""baseline_originality_rating"":3,""baseline_effectiveness_rating"":3,""baseline_authenticity_rating"":4,""baseline_intentionality_rating"":4}","baseline-questions-rating","survey","15","2029291","0.0-15.0","66b93f99d7c07d8558f67c5c","6987c292780adf01bb926159","69a1f7191075ebc2bad6ad05","","","","",""
"14012","","{""ai_aware_question"":""No, they weren't impacted""}","ai-aware-question","survey","16","2043309","0.0-16.0","66b93f99d7c07d8558f67c5c","6987c292780adf01bb926159","69a1f7191075ebc2bad6ad05","","","","",""
"3552","
        <p> You have completed the experiment! Press any key to save your data and get redirected back to Prolific. <strong>Please do not close the page until you have been redirected to Prolific.</strong> <p>
      ","arrowup","goodbye","html-keyboard-response","17","2046862","0.0-17.0","66b93f99d7c07d8558f67c5c","6987c292780adf01bb926159","69a1f7191075ebc2bad6ad05","","","","",""
