"rt","stimulus","response","phase","trial_type","trial_index","time_elapsed","internal_node_id","prolific_subject_id","study_id","session_id","exit_reason","game_data","emergency_text","keystrokes","mouse_events"
"22033","Welcome! In this study, you will play three short video games, completing a short survey after each game.<br><br>Please make sure you are in a quiet environment where you can focus for the duration of the study. Some games may use sound, so please ensure that your device's volume is not muted.<br><br>Press any key to begin.","enter","welcome-message","html-keyboard-response","0","22045","0.0-0.0","69a07c9683353f56f4e8bc70","6987c292780adf01bb926159","69a1f58074b81ce28ada2317","","","","",""
"14004","","{""commitment-check"":[""yes""]}","commitment-check","survey","1","36090","0.0-1.0","69a07c9683353f56f4e8bc70","6987c292780adf01bb926159","69a1f58074b81ce28ada2317","","","","",""
"4207","Press any key to proceed to the first video game.","enter","pre-game-one-message","html-keyboard-response","2","40297","0.0-2.0","69a07c9683353f56f4e8bc70","6987c292780adf01bb926159","69a1f58074b81ce28ada2317","","","","",""
"144083","","","game-chat-4-courier","plugin-game-iframe","3","184388","0.0-3.0","69a07c9683353f56f4e8bc70","6987c292780adf01bb926159","69a1f58074b81ce28ada2317","game-complete","{""result"":""win"",""timeLeft"":250.9990800000095,""dialTurns"":71,""shadowEchoesUsed"":43,""exposureIncidents"":1}","null","[{""key"":""Enter"",""event"":""keyup"",""t"":138},{""key"":""s"",""event"":""keydown"",""t"":21855},{""key"":""s"",""event"":""keyup"",""t"":21960},{""key"":""a"",""event"":""keydown"",""t"":22622},{""key"":""a"",""event"":""keyup"",""t"":22765},{""key"":""d"",""event"":""keydown"",""t"":23010},{""key"":""d"",""event"":""keyup"",""t"":23115},{""key"":""d"",""event"":""keydown"",""t"":23781},{""key"":""d"",""event"":""keyup"",""t"":23944},{""key"":""d"",""event"":""keydown"",""t"":24107},{""key"":""d"",""event"":""keyup"",""t"":24323},{""key"":""d"",""event"":""keydown"",""t"":24735},{""key"":""d"",""event"":""keydown"",""t"":25235},{""key"":""d"",""event"":""keydown"",""t"":25269},{""key"":""d"",""event"":""keydown"",""t"":25301},{""key"":""d"",""event"":""keydown"",""t"":25334},{""key"":""d"",""event"":""keydown"",""t"":25367},{""key"":""d"",""event"":""keydown"",""t"":25401},{""key"":""d"",""event"":""keydown"",""t"":25433},{""key"":""d"",""event"":""keydown"",""t"":25467},{""key"":""d"",""event"":""keydown"",""t"":25499},{""key"":""d"",""event"":""keydown"",""t"":25534},{""key"":""d"",""event"":""keydown"",""t"":25566},{""key"":""d"",""event"":""keydown"",""t"":25598},{""key"":""d"",""event"":""keydown"",""t"":25631},{""key"":""d"",""event"":""keydown"",""t"":25664},{""key"":""d"",""event"":""keydown"",""t"":25697},{""key"":""d"",""event"":""keydown"",""t"":25730},{""key"":""d"",""event"":""keydown"",""t"":25763},{""key"":""d"",""event"":""keydown"",""t"":25796},{""key"":""d"",""event"":""keyup"",""t"":25798},{""key"":""d"",""event"":""keydown"",""t"":25971},{""key"":""d"",""event"":""keyup"",""t"":26230},{""key"":""w"",""event"":""keydown"",""t"":26407},{""key"":""w"",""event"":""keydown"",""t"":26907},{""key"":""w"",""event"":""keydown"",""t"":26940},{""key"":""w"",""event"":""keydown"",""t"":26974},{""key"":""w"",""event"":""keydown"",""t"":27006},{""key"":""w"",""event"":""keydown"",""t"":27040},{""key"":""w"",""event"":""keydown"",""t"":27072},{""key"":""w"",""event"":""keydown"",""t"":27105},{""key"":""w"",""event"":""keydown"",""t"":27138},{""key"":""w"",""event"":""keydown"",""t"":27171},{""key"":""w"",""event"":""keydown"",""t"":27204},{""key"":""w"",""event"":""keydown"",""t"":27237},{""key"":""w"",""event"":""keydown"",""t"":27270},{""key"":""w"",""event"":""keydown"",""t"":27303},{""key"":""w"",""event"":""keydown"",""t"":27336},{""key"":""w"",""event"":""keydown"",""t"":27369},{""key"":""w"",""event"":""keydown"",""t"":27402},{""key"":""w"",""event"":""keydown"",""t"":27435},{""key"":""w"",""event"":""keydown"",""t"":27467},{""key"":""w"",""event"":""keydown"",""t"":27501},{""key"":""w"",""event"":""keydown"",""t"":27534},{""key"":""w"",""event"":""keydown"",""t"":27566},{""key"":""w"",""event"":""keydown"",""t"":27601},{""key"":""w"",""event"":""keydown"",""t"":27633},{""key"":""w"",""event"":""keydown"",""t"":27667},{""key"":""w"",""event"":""keydown"",""t"":27699},{""key"":""w"",""event"":""keydown"",""t"":27734},{""key"":""w"",""event"":""keydown"",""t"":27765},{""key"":""d"",""event"":""keydown"",""t"":27777},{""key"":""w"",""event"":""keyup"",""t"":27841},{""key"":""d"",""event"":""keyup"",""t"":27902},{""key"":""d"",""event"":""keydown"",""t"":28362},{""key"":""d"",""event"":""keydown"",""t"":28862},{""key"":""d"",""event"":""keydown"",""t"":28895},{""key"":""d"",""event"":""keydown"",""t"":28928},{""key"":""d"",""event"":""keydown"",""t"":28961},{""key"":""w"",""event"":""keydown"",""t"":28990},{""key"":""w"",""event"":""keydown"",""t"":29490},{""key"":""w"",""event"":""keydown"",""t"":29523},{""key"":""w"",""event"":""keydown"",""t"":29556},{""key"":""w"",""event"":""keydown"",""t"":29589},{""key"":""w"",""event"":""keydown"",""t"":29622},{""key"":""w"",""event"":""keydown"",""t"":29655},{""key"":""w"",""event"":""keydown"",""t"":29688},{""key"":""w"",""event"":""keydown"",""t"":29721},{""key"":""w"",""event"":""keydown"",""t"":29754},{""key"":""w"",""event"":""keydown"",""t"":29787},{""key"":""w"",""event"":""keydown"",""t"":29820},{""key"":""w"",""event"":""keydown"",""t"":29854},{""key"":""w"",""event"":""keydown"",""t"":29886},{""key"":""w"",""event"":""keydown"",""t"":29921},{""key"":""w"",""event"":""keydown"",""t"":29952},{""key"":""w"",""event"":""keydown"",""t"":29985},{""key"":""w"",""event"":""keydown"",""t"":30018},{""key"":""w"",""event"":""keydown"",""t"":30051},{""key"":""w"",""event"":""keydown"",""t"":30084},{""key"":""w"",""event"":""keydown"",""t"":30117},{""key"":""w"",""event"":""keydown"",""t"":30150},{""key"":""w"",""event"":""keydown"",""t"":30183},{""key"":""w"",""event"":""keydown"",""t"":30216},{""key"":""w"",""event"":""keydown"",""t"":30249},{""key"":""w"",""event"":""keydown"",""t"":30282},{""key"":""w"",""event"":""keydown"",""t"":30315},{""key"":""w"",""event"":""keydown"",""t"":30348},{""key"":""w"",""event"":""keydown"",""t"":30381},{""key"":""d"",""event"":""keyup"",""t"":30403},{""key"":""w"",""event"":""keyup"",""t"":30681},{""key"":""d"",""event"":""keydown"",""t"":33183},{""key"":""w"",""event"":""keydown"",""t"":33365},{""key"":""w"",""event"":""keyup"",""t"":33552},{""key"":""w"",""event"":""keydown"",""t"":33782},{""key"":""w"",""event"":""keyup"",""t"":34031},{""key"":""w"",""event"":""keydown"",""t"":34275},{""key"":""w"",""event"":""keyup"",""t"":34524},{""key"":""d"",""event"":""keyup"",""t"":35526},{""key"":""s"",""event"":""keydown"",""t"":35555},{""key"":""d"",""event"":""keydown"",""t"":36043},{""key"":""s"",""event"":""keyup"",""t"":36082},{""key"":""d"",""event"":""keyup"",""t"":36168},{""key"":""d"",""event"":""keydown"",""t"":36326},{""key"":""d"",""event"":""keyup"",""t"":36446},{""key"":""a"",""event"":""keydown"",""t"":36772},{""key"":""a"",""event"":""keyup"",""t"":36844},{""key"":""a"",""event"":""keydown"",""t"":37922},{""key"":""a"",""event"":""keyup"",""t"":38003},{""key"":""w"",""event"":""keydown"",""t"":38818},{""key"":""w"",""event"":""keyup"",""t"":38924},{""key"":""d"",""event"":""keydown"",""t"":41224},{""key"":""d"",""event"":""keyup"",""t"":41315},{""key"":""a"",""event"":""keydown"",""t"":41741},{""key"":""a"",""event"":""keyup"",""t"":41803},{""key"":""d"",""event"":""keydown"",""t"":41938},{""key"":""d"",""event"":""keyup"",""t"":42096},{""key"":""w"",""event"":""keydown"",""t"":42335},{""key"":""a"",""event"":""keydown"",""t"":42685},{""key"":""w"",""event"":""keyup"",""t"":42925},{""key"":""a"",""event"":""keydown"",""t"":43425},{""key"":""w"",""event"":""keydown"",""t"":43442},{""key"":""w"",""event"":""keydown"",""t"":43942},{""key"":""w"",""event"":""keyup"",""t"":43950},{""key"":""w"",""event"":""keydown"",""t"":44247},{""key"":""w"",""event"":""keydown"",""t"":44748},{""key"":""w"",""event"":""keydown"",""t"":44780},{""key"":""w"",""event"":""keydown"",""t"":44814},{""key"":""w"",""event"":""keydown"",""t"":44846},{""key"":""w"",""event"":""keydown"",""t"":44881},{""key"":""w"",""event"":""keydown"",""t"":44912},{""key"":""w"",""event"":""keydown"",""t"":44945},{""key"":""w"",""event"":""keydown"",""t"":44978},{""key"":""w"",""event"":""keydown"",""t"":45011},{""key"":""w"",""event"":""keydown"",""t"":45044},{""key"":""w"",""event"":""keydown"",""t"":45078},{""key"":""w"",""event"":""keydown"",""t"":45110},{""key"":""w"",""event"":""keyup"",""t"":45143},{""key"":""a"",""event"":""keyup"",""t"":45417},{""key"":""d"",""event"":""keydown"",""t"":46696},{""key"":""d"",""event"":""keyup"",""t"":46758},{""key"":""w"",""event"":""keydown"",""t"":47314},{""key"":""w"",""event"":""keyup"",""t"":47376},{""key"":""d"",""event"":""keydown"",""t"":51574},{""key"":""s"",""event"":""keydown"",""t"":51718},{""key"":""s"",""event"":""keydown"",""t"":52218},{""key"":""s"",""event"":""keydown"",""t"":52251},{""key"":""s"",""event"":""keyup"",""t"":52274},{""key"":""s"",""event"":""keydown"",""t"":52561},{""key"":""s"",""event"":""keydown"",""t"":53060},{""key"":""s"",""event"":""keydown"",""t"":53094},{""key"":""s"",""event"":""keydown"",""t"":53126},{""key"":""s"",""event"":""keydown"",""t"":53161},{""key"":""s"",""event"":""keydown"",""t"":53193},{""key"":""s"",""event"":""keydown"",""t"":53226},{""key"":""s"",""event"":""keydown"",""t"":53258},{""key"":""s"",""event"":""keydown"",""t"":53291},{""key"":""s"",""event"":""keydown"",""t"":53324},{""key"":""s"",""event"":""keyup"",""t"":53357},{""key"":""d"",""event"":""keyup"",""t"":53937},{""key"":""d"",""event"":""keydown"",""t"":54584},{""key"":""d"",""event"":""keyup"",""t"":54655},{""key"":""s"",""event"":""keydown"",""t"":55671},{""key"":""s"",""event"":""keyup"",""t"":55801},{""key"":""d"",""event"":""keydown"",""t"":56692},{""key"":""s"",""event"":""keydown"",""t"":56913},{""key"":""d"",""event"":""keyup"",""t"":56936},{""key"":""s"",""event"":""keydown"",""t"":57435},{""key"":""s"",""event"":""keydown"",""t"":57469},{""key"":""a"",""event"":""keydown"",""t"":57488},{""key"":""a"",""event"":""keyup"",""t"":57631},{""key"":""s"",""event"":""keyup"",""t"":57713},{""key"":""d"",""event"":""keydown"",""t"":58312},{""key"":""d"",""event"":""keydown"",""t"":58812},{""key"":""d"",""event"":""keydown"",""t"":58845},{""key"":""d"",""event"":""keydown"",""t"":58878},{""key"":""d"",""event"":""keydown"",""t"":58911},{""key"":""d"",""event"":""keydown"",""t"":58944},{""key"":""d"",""event"":""keydown"",""t"":58977},{""key"":""d"",""event"":""keydown"",""t"":59010},{""key"":""d"",""event"":""keydown"",""t"":59043},{""key"":""d"",""event"":""keydown"",""t"":59076},{""key"":""d"",""event"":""keydown"",""t"":59109},{""key"":""s"",""event"":""keydown"",""t"":59136},{""key"":""s"",""event"":""keyup"",""t"":59572},{""key"":""d"",""event"":""keyup"",""t"":60056},{""key"":""d"",""event"":""keydown"",""t"":60219},{""key"":""d"",""event"":""keyup"",""t"":60291},{""key"":""d"",""event"":""keydown"",""t"":61345},{""key"":""d"",""event"":""keyup"",""t"":61470},{""key"":""w"",""event"":""keydown"",""t"":62515},{""key"":""d"",""event"":""keydown"",""t"":62620},{""key"":""d"",""event"":""keyup"",""t"":62721},{""key"":""d"",""event"":""keydown"",""t"":63003},{""key"":""d"",""event"":""keydown"",""t"":63503},{""key"":""d"",""event"":""keydown"",""t"":63535},{""key"":""d"",""event"":""keydown"",""t"":63569},{""key"":""d"",""event"":""keydown"",""t"":63602},{""key"":""d"",""event"":""keydown"",""t"":63634},{""key"":""d"",""event"":""keydown"",""t"":63668},{""key"":""d"",""event"":""keydown"",""t"":63700},{""key"":""d"",""event"":""keydown"",""t"":63735},{""key"":""d"",""event"":""keydown"",""t"":63766},{""key"":""d"",""event"":""keydown"",""t"":63801},{""key"":""d"",""event"":""keydown"",""t"":63833},{""key"":""d"",""event"":""keydown"",""t"":63866},{""key"":""d"",""event"":""keydown"",""t"":63899},{""key"":""d"",""event"":""keydown"",""t"":63931},{""key"":""d"",""event"":""keydown"",""t"":63965},{""key"":""d"",""event"":""keydown"",""t"":63998},{""key"":""d"",""event"":""keydown"",""t"":64031},{""key"":""d"",""event"":""keydown"",""t"":64064},{""key"":""d"",""event"":""keydown"",""t"":64097},{""key"":""d"",""event"":""keydown"",""t"":64129},{""key"":""d"",""event"":""keydown"",""t"":64163},{""key"":""d"",""event"":""keydown"",""t"":64195},{""key"":""d"",""event"":""keydown"",""t"":64229},{""key"":""d"",""event"":""keyup"",""t"":64254},{""key"":""w"",""event"":""keyup"",""t"":64657},{""key"":""d"",""event"":""keydown"",""t"":64700},{""key"":""d"",""event"":""keyup"",""t"":64781},{""key"":""w"",""event"":""keydown"",""t"":68433},{""key"":""w"",""event"":""keyup"",""t"":68505},{""key"":""d"",""event"":""keydown"",""t"":73292},{""key"":""d"",""event"":""keydown"",""t"":73792},{""key"":""d"",""event"":""keydown"",""t"":73825},{""key"":""d"",""event"":""keydown"",""t"":73858},{""key"":""d"",""event"":""keydown"",""t"":73891},{""key"":""d"",""event"":""keydown"",""t"":73924},{""key"":""d"",""event"":""keydown"",""t"":73957},{""key"":""d"",""event"":""keydown"",""t"":73990},{""key"":""d"",""event"":""keydown"",""t"":74023},{""key"":""d"",""event"":""keydown"",""t"":74056},{""key"":""d"",""event"":""keydown"",""t"":74089},{""key"":""d"",""event"":""keydown"",""t"":74122},{""key"":""d"",""event"":""keydown"",""t"":74155},{""key"":""d"",""event"":""keydown"",""t"":74188},{""key"":""d"",""event"":""keydown"",""t"":74221},{""key"":""d"",""event"":""keydown"",""t"":74255},{""key"":""d"",""event"":""keydown"",""t"":74287},{""key"":""d"",""event"":""keydown"",""t"":74321},{""key"":""w"",""event"":""keydown"",""t"":74336},{""key"":""w"",""event"":""keyup"",""t"":74490},{""key"":""w"",""event"":""keydown"",""t"":74763},{""key"":""w"",""event"":""keyup"",""t"":74959},{""key"":""d"",""event"":""keyup"",""t"":75558},{""key"":""d"",""event"":""keydown"",""t"":75913},{""key"":""d"",""event"":""keyup"",""t"":75980},{""key"":""d"",""event"":""keydown"",""t"":76344},{""key"":""d"",""event"":""keyup"",""t"":76483},{""key"":""s"",""event"":""keydown"",""t"":76637},{""key"":""s"",""event"":""keydown"",""t"":77137},{""key"":""s"",""event"":""keydown"",""t"":77170},{""key"":""s"",""event"":""keydown"",""t"":77203},{""key"":""s"",""event"":""keydown"",""t"":77236},{""key"":""s"",""event"":""keydown"",""t"":77269},{""key"":""s"",""event"":""keydown"",""t"":77302},{""key"":""s"",""event"":""keyup"",""t"":77317},{""key"":""s"",""event"":""keydown"",""t"":77585},{""key"":""s"",""event"":""keyup"",""t"":77662},{""key"":""w"",""event"":""keydown"",""t"":77969},{""key"":""a"",""event"":""keydown"",""t"":78012},{""key"":""w"",""event"":""keyup"",""t"":78199},{""key"":""a"",""event"":""keyup"",""t"":78228},{""key"":""d"",""event"":""keydown"",""t"":79550},{""key"":""s"",""event"":""keydown"",""t"":79695},{""key"":""s"",""event"":""keydown"",""t"":80194},{""key"":""s"",""event"":""keydown"",""t"":80228},{""key"":""s"",""event"":""keyup"",""t"":80235},{""key"":""d"",""event"":""keyup"",""t"":80735},{""key"":""d"",""event"":""keydown"",""t"":81313},{""key"":""d"",""event"":""keyup"",""t"":81371},{""key"":""d"",""event"":""keydown"",""t"":81812},{""key"":""d"",""event"":""keydown"",""t"":82312},{""key"":""d"",""event"":""keydown"",""t"":82345},{""key"":""d"",""event"":""keydown"",""t"":82378},{""key"":""d"",""event"":""keydown"",""t"":82411},{""key"":""d"",""event"":""keydown"",""t"":82444},{""key"":""d"",""event"":""keydown"",""t"":82477},{""key"":""d"",""event"":""keydown"",""t"":82510},{""key"":""d"",""event"":""keydown"",""t"":82543},{""key"":""d"",""event"":""keydown"",""t"":82576},{""key"":""d"",""event"":""keydown"",""t"":82609},{""key"":""d"",""event"":""keydown"",""t"":82642},{""key"":""d"",""event"":""keydown"",""t"":82675},{""key"":""d"",""event"":""keydown"",""t"":82708},{""key"":""d"",""event"":""keydown"",""t"":82741},{""key"":""d"",""event"":""keydown"",""t"":82775},{""key"":""d"",""event"":""keydown"",""t"":82807},{""key"":""d"",""event"":""keydown"",""t"":82841},{""key"":""d"",""event"":""keydown"",""t"":82873},{""key"":""d"",""event"":""keydown"",""t"":82906},{""key"":""d"",""event"":""keydown"",""t"":82938},{""key"":""d"",""event"":""keydown"",""t"":82972},{""key"":""d"",""event"":""keydown"",""t"":83004},{""key"":""d"",""event"":""keydown"",""t"":83038},{""key"":""d"",""event"":""keydown"",""t"":83071},{""key"":""d"",""event"":""keydown"",""t"":83104},{""key"":""d"",""event"":""keydown"",""t"":83137},{""key"":""d"",""event"":""keydown"",""t"":83170},{""key"":""d"",""event"":""keydown"",""t"":83203},{""key"":""d"",""event"":""keydown"",""t"":83236},{""key"":""d"",""event"":""keydown"",""t"":83269},{""key"":""d"",""event"":""keydown"",""t"":83302},{""key"":""d"",""event"":""keydown"",""t"":83335},{""key"":""d"",""event"":""keydown"",""t"":83368},{""key"":""d"",""event"":""keydown"",""t"":83402},{""key"":""d"",""event"":""keydown"",""t"":83434},{""key"":""d"",""event"":""keydown"",""t"":83468},{""key"":""d"",""event"":""keydown"",""t"":83500},{""key"":""d"",""event"":""keydown"",""t"":83533},{""key"":""d"",""event"":""keydown"",""t"":83565},{""key"":""d"",""event"":""keydown"",""t"":83599},{""key"":""d"",""event"":""keydown"",""t"":83632},{""key"":""d"",""event"":""keyup"",""t"":83632},{""key"":""w"",""event"":""keydown"",""t"":85348},{""key"":""w"",""event"":""keydown"",""t"":85848},{""key"":""w"",""event"":""keydown"",""t"":85882},{""key"":""w"",""event"":""keydown"",""t"":85914},{""key"":""w"",""event"":""keydown"",""t"":85948},{""key"":""w"",""event"":""keydown"",""t"":85979},{""key"":""w"",""event"":""keydown"",""t"":86012},{""key"":""w"",""event"":""keydown"",""t"":86046},{""key"":""w"",""event"":""keydown"",""t"":86078},{""key"":""w"",""event"":""keydown"",""t"":86111},{""key"":""w"",""event"":""keydown"",""t"":86144},{""key"":""w"",""event"":""keydown"",""t"":86177},{""key"":""w"",""event"":""keydown"",""t"":86210},{""key"":""w"",""event"":""keydown"",""t"":86244},{""key"":""d"",""event"":""keydown"",""t"":86259},{""key"":""d"",""event"":""keydown"",""t"":86758},{""key"":""d"",""event"":""keydown"",""t"":86792},{""key"":""d"",""event"":""keydown"",""t"":86825},{""key"":""d"",""event"":""keyup"",""t"":86838},{""key"":""a"",""event"":""keydown"",""t"":87260},{""key"":""w"",""event"":""keyup"",""t"":87710},{""key"":""a"",""event"":""keyup"",""t"":88065},{""key"":""d"",""event"":""keydown"",""t"":95670},{""key"":""d"",""event"":""keyup"",""t"":95924},{""key"":""d"",""event"":""keydown"",""t"":100701},{""key"":""d"",""event"":""keyup"",""t"":101069},{""key"":""w"",""event"":""keydown"",""t"":101190},{""key"":""d"",""event"":""keydown"",""t"":101659},{""key"":""d"",""event"":""keyup"",""t"":101778},{""key"":""d"",""event"":""keydown"",""t"":102033},{""key"":""d"",""event"":""keyup"",""t"":102278},{""key"":""d"",""event"":""keydown"",""t"":102594},{""key"":""d"",""event"":""keyup"",""t"":102728},{""key"":""d"",""event"":""keydown"",""t"":103002},{""key"":""w"",""event"":""keyup"",""t"":103130},{""key"":""d"",""event"":""keyup"",""t"":103189},{""key"":""d"",""event"":""keydown"",""t"":103360},{""key"":""d"",""event"":""keyup"",""t"":103429},{""key"":""w"",""event"":""keydown"",""t"":104213},{""key"":""w"",""event"":""keydown"",""t"":104713},{""key"":""w"",""event"":""keydown"",""t"":104746},{""key"":""w"",""event"":""keydown"",""t"":104779},{""key"":""w"",""event"":""keydown"",""t"":104812},{""key"":""w"",""event"":""keydown"",""t"":104845},{""key"":""w"",""event"":""keydown"",""t"":104877},{""key"":""w"",""event"":""keydown"",""t"":104910},{""key"":""w"",""event"":""keydown"",""t"":104943},{""key"":""w"",""event"":""keydown"",""t"":104976},{""key"":""w"",""event"":""keydown"",""t"":105010},{""key"":""w"",""event"":""keydown"",""t"":105043},{""key"":""w"",""event"":""keydown"",""t"":105076},{""key"":""w"",""event"":""keydown"",""t"":105109},{""key"":""d"",""event"":""keydown"",""t"":105129},{""key"":""w"",""event"":""keyup"",""t"":105493},{""key"":""w"",""event"":""keydown"",""t"":105732},{""key"":""w"",""event"":""keyup"",""t"":105895},{""key"":""d"",""event"":""keyup"",""t"":105967},{""key"":""d"",""event"":""keydown"",""t"":115143},{""key"":""s"",""event"":""keydown"",""t"":115158},{""key"":""s"",""event"":""keyup"",""t"":115564},{""key"":""s"",""event"":""keydown"",""t"":115891},{""key"":""s"",""event"":""keydown"",""t"":116391},{""key"":""s"",""event"":""keydown"",""t"":116424},{""key"":""s"",""event"":""keydown"",""t"":116457},{""key"":""s"",""event"":""keydown"",""t"":116490},{""key"":""s"",""event"":""keydown"",""t"":116523},{""key"":""s"",""event"":""keydown"",""t"":116556},{""key"":""s"",""event"":""keydown"",""t"":116589},{""key"":""s"",""event"":""keydown"",""t"":116622},{""key"":""s"",""event"":""keydown"",""t"":116656},{""key"":""s"",""event"":""keydown"",""t"":116688},{""key"":""s"",""event"":""keydown"",""t"":116722},{""key"":""s"",""event"":""keydown"",""t"":116755},{""key"":""s"",""event"":""keyup"",""t"":116772},{""key"":""d"",""event"":""keyup"",""t"":117271},{""key"":""d"",""event"":""keydown"",""t"":118756},{""key"":""d"",""event"":""keyup"",""t"":118972},{""key"":""d"",""event"":""keydown"",""t"":119169},{""key"":""d"",""event"":""keyup"",""t"":119293},{""key"":""d"",""event"":""keydown"",""t"":119629},{""key"":""s"",""event"":""keydown"",""t"":119686},{""key"":""d"",""event"":""keyup"",""t"":119873},{""key"":""s"",""event"":""keydown"",""t"":120373},{""key"":""s"",""event"":""keydown"",""t"":120406},{""key"":""s"",""event"":""keydown"",""t"":120439},{""key"":""s"",""event"":""keydown"",""t"":120472},{""key"":""s"",""event"":""keydown"",""t"":120505},{""key"":""a"",""event"":""keydown"",""t"":120525},{""key"":""s"",""event"":""keyup"",""t"":120648},{""key"":""w"",""event"":""keydown"",""t"":120755},{""key"":""a"",""event"":""keyup"",""t"":121066},{""key"":""w"",""event"":""keyup"",""t"":121066},{""key"":""d"",""event"":""keydown"",""t"":121488},{""key"":""d"",""event"":""keyup"",""t"":121560},{""key"":""d"",""event"":""keydown"",""t"":122029},{""key"":""s"",""event"":""keydown"",""t"":122211},{""key"":""s"",""event"":""keyup"",""t"":122464},{""key"":""s"",""event"":""keydown"",""t"":122959},{""key"":""s"",""event"":""keyup"",""t"":123088},{""key"":""d"",""event"":""keyup"",""t"":123295},{""key"":""s"",""event"":""keydown"",""t"":127416},{""key"":""d"",""event"":""keydown"",""t"":127416},{""key"":""s"",""event"":""keyup"",""t"":127577},{""key"":""d"",""event"":""keydown"",""t"":128077},{""key"":""d"",""event"":""keydown"",""t"":128110},{""key"":""d"",""event"":""keydown"",""t"":128143},{""key"":""d"",""event"":""keydown"",""t"":128176},{""key"":""d"",""event"":""keydown"",""t"":128209},{""key"":""d"",""event"":""keyup"",""t"":128225},{""key"":""d"",""event"":""keydown"",""t"":131099},{""key"":""d"",""event"":""keyup"",""t"":131238},{""key"":""w"",""event"":""keydown"",""t"":131431},{""key"":""w"",""event"":""keyup"",""t"":131541},{""key"":""d"",""event"":""keydown"",""t"":131818},{""key"":""w"",""event"":""keydown"",""t"":131882},{""key"":""d"",""event"":""keyup"",""t"":131909},{""key"":""w"",""event"":""keyup"",""t"":131933},{""key"":""w"",""event"":""keydown"",""t"":132323},{""key"":""w"",""event"":""keyup"",""t"":132404},{""key"":""a"",""event"":""keydown"",""t"":132691},{""key"":""a"",""event"":""keyup"",""t"":132797},{""key"":""a"",""event"":""keydown"",""t"":133046},{""key"":""w"",""event"":""keydown"",""t"":133065},{""key"":""w"",""event"":""keyup"",""t"":133166},{""key"":""a"",""event"":""keyup"",""t"":133199},{""key"":""a"",""event"":""keydown"",""t"":133463},{""key"":""w"",""event"":""keydown"",""t"":133463},{""key"":""w"",""event"":""keyup"",""t"":133573},{""key"":""a"",""event"":""keyup"",""t"":133592},{""key"":""a"",""event"":""keydown"",""t"":133904},{""key"":""w"",""event"":""keydown"",""t"":133995},{""key"":""a"",""event"":""keyup"",""t"":134047},{""key"":""w"",""event"":""keyup"",""t"":134047},{""key"":""a"",""event"":""keydown"",""t"":134354},{""key"":""a"",""event"":""keyup"",""t"":134445},{""key"":""w"",""event"":""keydown"",""t"":134919},{""key"":""w"",""event"":""keyup"",""t"":134982},{""key"":""w"",""event"":""keydown"",""t"":138911},{""key"":""d"",""event"":""keydown"",""t"":138911},{""key"":""d"",""event"":""keyup"",""t"":139251},{""key"":""d"",""event"":""keydown"",""t"":139874},{""key"":""d"",""event"":""keydown"",""t"":140374},{""key"":""d"",""event"":""keydown"",""t"":140406},{""key"":""d"",""event"":""keydown"",""t"":140439},{""key"":""d"",""event"":""keydown"",""t"":140473},{""key"":""d"",""event"":""keydown"",""t"":140506},{""key"":""d"",""event"":""keydown"",""t"":140538},{""key"":""d"",""event"":""keydown"",""t"":140571},{""key"":""d"",""event"":""keydown"",""t"":140605},{""key"":""d"",""event"":""keydown"",""t"":140637},{""key"":""d"",""event"":""keydown"",""t"":140671},{""key"":""d"",""event"":""keydown"",""t"":140704},{""key"":""d"",""event"":""keydown"",""t"":140737},{""key"":""d"",""event"":""keydown"",""t"":140770},{""key"":""d"",""event"":""keydown"",""t"":140803},{""key"":""d"",""event"":""keydown"",""t"":140836},{""key"":""w"",""event"":""keyup"",""t"":140843},{""key"":""d"",""event"":""keyup"",""t"":141119},{""key"":""d"",""event"":""keydown"",""t"":141599},{""key"":""d"",""event"":""keyup"",""t"":141671}]","[]"
"520250","","{""creativity-rating"":4,""creativity-free-response"":""the timing, I had to calculate every move "",""originality-rating"":2,""originality-free-response"":""i played some games that looked like that, not the exact gameplay, but somehow similar "",""effectiveness-rating"":4,""effectiveness-free-response"":""Everything worked well, the last mail delivery was somewhat frustrating due to the radius of the light circle "",""authenticity-rating"":2,""attention-check"":3,""intentionality-rating"":3,""authenticity-intentionality-free-response"":""i rated the authenticity 2 cuz i feel that i played a similar game before \n3 for the intentionality and effort, cuz its made out of simple mechanics and graphics ""}","evaluation-chat-4-courier","survey","4","704684","0.0-4.0","69a07c9683353f56f4e8bc70","6987c292780adf01bb926159","69a1f58074b81ce28ada2317","","","","",""
"66937","","{""concept-creativity-rating"":5,""concept-implementation-rating"":4,""question1"":null}","concept-chat-4-courier","survey","5","771643","0.0-5.0","69a07c9683353f56f4e8bc70","6987c292780adf01bb926159","69a1f58074b81ce28ada2317","","","","",""
"3719","You have completed your evaluation of the first video game.<br><br>Press any key to proceed to the second game.","enter","pre-game-two-message","html-keyboard-response","6","775363","0.0-6.0","69a07c9683353f56f4e8bc70","6987c292780adf01bb926159","69a1f58074b81ce28ada2317","","","","",""
"50548","","","game-gemini-1-static","plugin-game-iframe","7","825917","0.0-7.0","69a07c9683353f56f4e8bc70","6987c292780adf01bb926159","69a1f58074b81ce28ada2317","game-complete","{""result"":""win"",""signalHealth"":38.124199999868644}","null","[{""key"":""Enter"",""event"":""keyup"",""t"":105},{""key"":""a"",""event"":""keydown"",""t"":8127},{""key"":""a"",""event"":""keyup"",""t"":8242},{""key"":""s"",""event"":""keydown"",""t"":8592},{""key"":""s"",""event"":""keyup"",""t"":8755},{""key"":""s"",""event"":""keydown"",""t"":9584},{""key"":""s"",""event"":""keyup"",""t"":9871},{""key"":""d"",""event"":""keydown"",""t"":9934},{""key"":""d"",""event"":""keyup"",""t"":10164},{""key"":""d"",""event"":""keydown"",""t"":10691},{""key"":""d"",""event"":""keyup"",""t"":10849},{""key"":""a"",""event"":""keydown"",""t"":10983},{""key"":""a"",""event"":""keyup"",""t"":11334},{""key"":""d"",""event"":""keydown"",""t"":11438},{""key"":""d"",""event"":""keydown"",""t"":11938},{""key"":""d"",""event"":""keydown"",""t"":11971},{""key"":""d"",""event"":""keydown"",""t"":12004},{""key"":""d"",""event"":""keydown"",""t"":12037},{""key"":""d"",""event"":""keydown"",""t"":12070},{""key"":""d"",""event"":""keydown"",""t"":12103},{""key"":""d"",""event"":""keydown"",""t"":12136},{""key"":""d"",""event"":""keydown"",""t"":12169},{""key"":""d"",""event"":""keyup"",""t"":12201},{""key"":""w"",""event"":""keydown"",""t"":13351},{""key"":""w"",""event"":""keyup"",""t"":13628},{""key"":""a"",""event"":""keydown"",""t"":14568},{""key"":""w"",""event"":""keydown"",""t"":14569},{""key"":""w"",""event"":""keydown"",""t"":15069},{""key"":""w"",""event"":""keyup"",""t"":15090},{""key"":""a"",""event"":""keyup"",""t"":15124},{""key"":""w"",""event"":""keydown"",""t"":15842},{""key"":""d"",""event"":""keydown"",""t"":15886},{""key"":""w"",""event"":""keyup"",""t"":16231},{""key"":""d"",""event"":""keyup"",""t"":16303},{""key"":""d"",""event"":""keydown"",""t"":16993},{""key"":""d"",""event"":""keydown"",""t"":17494},{""key"":""d"",""event"":""keydown"",""t"":17526},{""key"":""d"",""event"":""keydown"",""t"":17559},{""key"":""d"",""event"":""keydown"",""t"":17592},{""key"":""d"",""event"":""keydown"",""t"":17625},{""key"":""d"",""event"":""keydown"",""t"":17659},{""key"":""d"",""event"":""keydown"",""t"":17691},{""key"":""d"",""event"":""keydown"",""t"":17724},{""key"":""d"",""event"":""keydown"",""t"":17758},{""key"":""d"",""event"":""keydown"",""t"":17790},{""key"":""d"",""event"":""keydown"",""t"":17823},{""key"":""d"",""event"":""keydown"",""t"":17856},{""key"":""d"",""event"":""keydown"",""t"":17889},{""key"":""d"",""event"":""keydown"",""t"":17922},{""key"":""d"",""event"":""keydown"",""t"":17955},{""key"":""d"",""event"":""keydown"",""t"":17988},{""key"":""d"",""event"":""keydown"",""t"":18021},{""key"":""d"",""event"":""keydown"",""t"":18054},{""key"":""d"",""event"":""keydown"",""t"":18088},{""key"":""d"",""event"":""keydown"",""t"":18121},{""key"":""d"",""event"":""keydown"",""t"":18154},{""key"":""d"",""event"":""keydown"",""t"":18186},{""key"":""d"",""event"":""keydown"",""t"":18219},{""key"":""d"",""event"":""keydown"",""t"":18253},{""key"":""d"",""event"":""keydown"",""t"":18285},{""key"":""w"",""event"":""keydown"",""t"":18306},{""key"":""w"",""event"":""keyup"",""t"":18435},{""key"":""d"",""event"":""keyup"",""t"":18962},{""key"":""ArrowLeft"",""event"":""keydown"",""t"":21368},{""key"":""ArrowLeft"",""event"":""keyup"",""t"":21589},{""key"":""ArrowLeft"",""event"":""keydown"",""t"":22092},{""key"":""ArrowLeft"",""event"":""keyup"",""t"":22379},{""key"":""ArrowUp"",""event"":""keydown"",""t"":23046},{""key"":""ArrowRight"",""event"":""keydown"",""t"":23419},{""key"":""ArrowUp"",""event"":""keyup"",""t"":23668},{""key"":""ArrowRight"",""event"":""keyup"",""t"":23946},{""key"":""ArrowLeft"",""event"":""keydown"",""t"":24718},{""key"":""ArrowLeft"",""event"":""keyup"",""t"":24852},{""key"":""ArrowLeft"",""event"":""keydown"",""t"":25298},{""key"":""ArrowLeft"",""event"":""keyup"",""t"":25394},{""key"":""ArrowLeft"",""event"":""keydown"",""t"":25849},{""key"":""ArrowLeft"",""event"":""keyup"",""t"":26309},{""key"":""d"",""event"":""keydown"",""t"":30761},{""key"":""d"",""event"":""keyup"",""t"":30900},{""key"":""d"",""event"":""keydown"",""t"":31302},{""key"":""d"",""event"":""keyup"",""t"":31475},{""key"":""ArrowUp"",""event"":""keydown"",""t"":31916},{""key"":""ArrowRight"",""event"":""keydown"",""t"":32007},{""key"":""ArrowUp"",""event"":""keyup"",""t"":32031},{""key"":""d"",""event"":""keydown"",""t"":32045},{""key"":""d"",""event"":""keyup"",""t"":32342},{""key"":""ArrowRight"",""event"":""keyup"",""t"":32395},{""key"":""ArrowLeft"",""event"":""keydown"",""t"":33593},{""key"":""ArrowUp"",""event"":""keydown"",""t"":33632},{""key"":""ArrowLeft"",""event"":""keyup"",""t"":33958},{""key"":""ArrowUp"",""event"":""keyup"",""t"":33959},{""key"":""ArrowLeft"",""event"":""keydown"",""t"":35045},{""key"":""ArrowUp"",""event"":""keydown"",""t"":35088},{""key"":""ArrowUp"",""event"":""keyup"",""t"":35328},{""key"":""ArrowLeft"",""event"":""keyup"",""t"":35342},{""key"":""ArrowLeft"",""event"":""keydown"",""t"":35970},{""key"":""ArrowLeft"",""event"":""keyup"",""t"":36061},{""key"":""a"",""event"":""keydown"",""t"":36675},{""key"":""w"",""event"":""keydown"",""t"":36819},{""key"":""w"",""event"":""keyup"",""t"":37178},{""key"":""a"",""event"":""keyup"",""t"":37216},{""key"":""a"",""event"":""keydown"",""t"":37389},{""key"":""a"",""event"":""keyup"",""t"":37648},{""key"":""w"",""event"":""keydown"",""t"":38218},{""key"":""a"",""event"":""keydown"",""t"":38338},{""key"":""a"",""event"":""keyup"",""t"":38630},{""key"":""w"",""event"":""keyup"",""t"":38688},{""key"":""a"",""event"":""keydown"",""t"":39047},{""key"":""a"",""event"":""keyup"",""t"":39191},{""key"":""w"",""event"":""keydown"",""t"":39804},{""key"":""w"",""event"":""keyup"",""t"":40298},{""key"":""a"",""event"":""keydown"",""t"":40648},{""key"":""a"",""event"":""keyup"",""t"":40729},{""key"":""a"",""event"":""keydown"",""t"":41194},{""key"":""a"",""event"":""keyup"",""t"":41261},{""key"":""a"",""event"":""keydown"",""t"":41649},{""key"":""a"",""event"":""keyup"",""t"":41745},{""key"":""a"",""event"":""keydown"",""t"":42066},{""key"":""a"",""event"":""keyup"",""t"":42258},{""key"":""w"",""event"":""keydown"",""t"":43705},{""key"":""d"",""event"":""keydown"",""t"":43820},{""key"":""w"",""event"":""keyup"",""t"":43863},{""key"":""d"",""event"":""keyup"",""t"":43945},{""key"":""d"",""event"":""keydown"",""t"":44328},{""key"":""d"",""event"":""keyup"",""t"":44419},{""key"":""d"",""event"":""keydown"",""t"":44788},{""key"":""d"",""event"":""keyup"",""t"":44903},{""key"":""w"",""event"":""keydown"",""t"":45196},{""key"":""ArrowUp"",""event"":""keydown"",""t"":45258},{""key"":""ArrowUp"",""event"":""keydown"",""t"":45758},{""key"":""w"",""event"":""keyup"",""t"":45761},{""key"":""ArrowUp"",""event"":""keyup"",""t"":45814},{""key"":""d"",""event"":""keydown"",""t"":45958},{""key"":""d"",""event"":""keyup"",""t"":46058},{""key"":""a"",""event"":""keydown"",""t"":46427},{""key"":""a"",""event"":""keyup"",""t"":46615},{""key"":""Enter"",""event"":""keydown"",""t"":50539}]","[]"
"406655","","{""creativity-rating"":5,""creativity-free-response"":""I've never played anything like it "",""originality-rating"":5,""originality-free-response"":""No parts caused a sense of surprise to me, but the game felt original cuz i have never played anything like it "",""effectiveness-rating"":4,""effectiveness-free-response"":""its fun as a two-player game i just didn't feel the full experience because I played alone "",""authenticity-rating"":4,""attention-check"":3,""intentionality-rating"":3,""authenticity-intentionality-free-response"":""4 is my rating of authenticity because I never played or seen anything similar\n3 is my rating of intentionality and personal effort cuz the robe color changing and the vibration made the game more engaging ""}","evaluation-gemini-1-static","survey","8","1232597","0.0-8.0","69a07c9683353f56f4e8bc70","6987c292780adf01bb926159","69a1f58074b81ce28ada2317","","","","",""
"37379","","{""concept-creativity-rating"":4,""concept-implementation-rating"":5,""question1"":null}","concept-gemini-1-static","survey","9","1269998","0.0-9.0","69a07c9683353f56f4e8bc70","6987c292780adf01bb926159","69a1f58074b81ce28ada2317","","","","",""
"2137","You have completed your evaluation of the second video game.<br><br>Press any key to proceed to the final game.","enter","pre-game-three-message","html-keyboard-response","10","1272136","0.0-10.0","69a07c9683353f56f4e8bc70","6987c292780adf01bb926159","69a1f58074b81ce28ada2317","","","","",""
"207755","","","game-chat-3-orbit","plugin-game-iframe","11","1479900","0.0-11.0","69a07c9683353f56f4e8bc70","6987c292780adf01bb926159","69a1f58074b81ce28ada2317","game-complete","{""result"":""win"",""accuracy"":36,""totalLaunches"":260,""onBeatLaunches"":93,""longestOrbit"":82.69489999999999}","null","[{""key"":""Enter"",""event"":""keyup"",""t"":61},{""key"":""w"",""event"":""keydown"",""t"":10604},{""key"":""w"",""event"":""keyup"",""t"":10868},{""key"":""c"",""event"":""keydown"",""t"":12952},{""key"":""c"",""event"":""keyup"",""t"":13101},{""key"":""n"",""event"":""keydown"",""t"":27774},{""key"":""n"",""event"":""keyup"",""t"":27879},{""key"":""r"",""event"":""keydown"",""t"":70189},{""key"":""r"",""event"":""keyup"",""t"":70275},{""key"":""r"",""event"":""keydown"",""t"":73520},{""key"":""r"",""event"":""keyup"",""t"":73591},{""key"":""ArrowLeft"",""event"":""keydown"",""t"":106008},{""key"":""ArrowLeft"",""event"":""keyup"",""t"":106188},{""key"":""ArrowLeft"",""event"":""keydown"",""t"":106856},{""key"":""ArrowLeft"",""event"":""keyup"",""t"":107055},{""key"":""ArrowLeft"",""event"":""keydown"",""t"":107605},{""key"":""ArrowLeft"",""event"":""keyup"",""t"":107730},{""key"":""ArrowRight"",""event"":""keydown"",""t"":108135},{""key"":""ArrowRight"",""event"":""keyup"",""t"":108286},{""key"":""ArrowUp"",""event"":""keydown"",""t"":109135},{""key"":""ArrowUp"",""event"":""keyup"",""t"":109487},{""key"":""d"",""event"":""keydown"",""t"":111539},{""key"":""a"",""event"":""keydown"",""t"":111807},{""key"":""d"",""event"":""keyup"",""t"":111869},{""key"":""a"",""event"":""keyup"",""t"":111975},{""key"":""ArrowDown"",""event"":""keydown"",""t"":113992},{""key"":""ArrowDown"",""event"":""keyup"",""t"":114457},{""key"":""ArrowLeft"",""event"":""keydown"",""t"":114605},{""key"":""ArrowLeft"",""event"":""keyup"",""t"":114865},{""key"":""d"",""event"":""keydown"",""t"":121090},{""key"":""d"",""event"":""keyup"",""t"":121353},{""key"":""a"",""event"":""keydown"",""t"":121402},{""key"":""s"",""event"":""keydown"",""t"":121402},{""key"":""s"",""event"":""keyup"",""t"":121487},{""key"":""w"",""event"":""keydown"",""t"":121645},{""key"":""a"",""event"":""keyup"",""t"":121836},{""key"":""w"",""event"":""keyup"",""t"":121837},{""key"":""Enter"",""event"":""keydown"",""t"":159652},{""key"":""Enter"",""event"":""keyup"",""t"":159771},{""key"":""Enter"",""event"":""keydown"",""t"":203969},{""key"":""Enter"",""event"":""keyup"",""t"":204048},{""key"":""Enter"",""event"":""keydown"",""t"":207741}]","[]"
"204458","","{""creativity-rating"":1,""creativity-free-response"":""i palyed a lot of games like this one"",""originality-rating"":1,""originality-free-response"":""there is a lot of games like this"",""effectiveness-rating"":1,""effectiveness-free-response"":""i the sound was so annoying, and the mechanics aren't the best "",""authenticity-rating"":1,""attention-check"":3,""intentionality-rating"":3,""authenticity-intentionality-free-response"":""1 in authenticity cuz ive seen a lot of games like this one\n3  in intentionality, and effort, cuz i feel that the developer put some effort into this game""}","evaluation-chat-3-orbit","survey","12","1684389","0.0-12.0","69a07c9683353f56f4e8bc70","6987c292780adf01bb926159","69a1f58074b81ce28ada2317","","","","",""
"15392","","{""concept-creativity-rating"":3,""concept-implementation-rating"":4,""question1"":null}","concept-chat-3-orbit","survey","13","1699799","0.0-13.0","69a07c9683353f56f4e8bc70","6987c292780adf01bb926159","69a1f58074b81ce28ada2317","","","","",""
"1580","You have completed all of the games!<br><br>Press any key to proceed to some final questions before returning to Prolific.","enter","pre-baseline-questions","html-keyboard-response","14","1701380","0.0-14.0","69a07c9683353f56f4e8bc70","6987c292780adf01bb926159","69a1f58074b81ce28ada2317","","","","",""
"28381","","{""baseline_originality_rating"":4,""baseline_effectiveness_rating"":4,""baseline_authenticity_rating"":3,""baseline_intentionality_rating"":3}","baseline-questions-rating","survey","15","1729775","0.0-15.0","69a07c9683353f56f4e8bc70","6987c292780adf01bb926159","69a1f58074b81ce28ada2317","","","","",""
"55422","","{""ai_blind_question"":""No, my answers are based on the game, not the developer ""}","ai-blind-question","survey","16","1785205","0.0-16.0","69a07c9683353f56f4e8bc70","6987c292780adf01bb926159","69a1f58074b81ce28ada2317","","","","",""
"9695","
        <p> You have completed the experiment! Press any key to save your data and get redirected back to Prolific. <strong>Please do not close the page until you have been redirected to Prolific.</strong> <p>
      ","enter","goodbye","html-keyboard-response","17","1794903","0.0-17.0","69a07c9683353f56f4e8bc70","6987c292780adf01bb926159","69a1f58074b81ce28ada2317","","","","",""
