"rt","stimulus","response","phase","trial_type","trial_index","time_elapsed","internal_node_id","prolific_subject_id","study_id","session_id","exit_reason","exit_stage","exit_progress","game_data","emergency_text","keystrokes","mouse_events"
"32707","Welcome!<br><br>In this study, you will play three short video games that were generated by Artificial Intelligence (AI) and complete a short survey after each game.<br><br>Please make sure you are in a quiet environment where you can focus for the duration of the study. Some games may use sound, so please ensure that your device's volume is not muted.<br><br>Press any key to begin."," ","welcome-message","html-keyboard-response","0","32716","0.0-0.0","6980e32bc22bae8cb57154ed","6987c292780adf01bb926159","69a4db00031db13ee84260bc","","","","","","",""
"39426","","{""commitment-check"":[""yes""]}","commitment-check","survey","1","72185","0.0-1.0","6980e32bc22bae8cb57154ed","6987c292780adf01bb926159","69a4db00031db13ee84260bc","","","","","","",""
"6779","Press any key to proceed to the first video game. Should you encounter a game-breaking bug, please report the issue in the Menu tab to the right of the screen."," ","pre-game-one-message","html-keyboard-response","2","78965","0.0-2.0","6980e32bc22bae8cb57154ed","6987c292780adf01bb926159","69a4db00031db13ee84260bc","","","","","","",""
"344140","","","game-claude-5-cartographer","plugin-game-iframe","3","423116","0.0-3.0","6980e32bc22bae8cb57154ed","6987c292780adf01bb926159","69a4db00031db13ee84260bc","game-complete","phase:results (land 1%)","{""stage"":""phase:results (land 1%)"",""detail"":{""gamePhase"":""results"",""landSaved"":2,""landPercent"":1,""elapsedTime"":300.0108500000186,""citiesAlive"":2,""ink"":100}}","{""result"":""complete"",""landPercent"":1,""citiesSurviving"":2,""peopleSaved"":2550}","null","[{""key"":"" "",""event"":""keyup"",""t"":140},{""key"":""Enter"",""event"":""keydown"",""t"":344124}]","[]"
"578814","","{""creativity-rating"":2,""creativity-free-response"":""The game is actually pretty boring, that's my honest take, because the instructions were not pretty clear and i tried to save the cities, when they are protected the tile is highlighted in yellow, that yellow isnt visible enough, when i focus on other tiles i cant see that the other tiles are not protected anymore, the objective was clear and simple, it was kind of stressful and thats a good thing, you want to stay engaged, but could work on the animations more. overall its a simple basic game not much creativity to it, pretty straightforward instructions, save the cities."",""originality-rating"":2,""originality-free-response"":""it felt like i am playing a game on my old desktop pc in the early 2000's, 2D simple game, very nostalgic, not original at all its similar to a lot of games i played during those times, and as i said in the previous question's answer, you could work on the animations more and make the instructions clearer or add another objective to it"",""effectiveness-rating"":1,""effectiveness-free-response"":""I am being honest here, its kind of normal and slightly boring, you only click tiles, you have to pay attention to the tiles when they are no longer being protected that is the challenging part, but i didnt enjoy playing it, i could spend my time playing another game if i had to"",""authenticity-rating"":1,""attention-check"":3,""intentionality-rating"":2,""authenticity-intentionality-free-response"":""as i said in the previous questions' answers, it felt like some old retro games that i have played in my childhood on my old pc, with basic goals such as clicking or moving with keyboard to protect people or a princess, so its not authentic, and it feels like the developer didnt put much effort into making it.""}","evaluation-claude-5-cartographer","survey","4","1001986","0.0-4.0","6980e32bc22bae8cb57154ed","6987c292780adf01bb926159","69a4db00031db13ee84260bc","","","","","","",""
"50035","","{""concept-creativity-rating"":4,""concept-implementation-rating"":4,""question1"":null}","concept-claude-5-cartographer","survey","5","1052042","0.0-5.0","6980e32bc22bae8cb57154ed","6987c292780adf01bb926159","69a4db00031db13ee84260bc","","","","","","",""
"2218","You have completed your evaluation of the first video game.<br><br>Press any key to proceed to the second game."," ","pre-game-two-message","html-keyboard-response","6","1054261","0.0-6.0","6980e32bc22bae8cb57154ed","6987c292780adf01bb926159","69a4db00031db13ee84260bc","","","","","","",""
"70074","","","game-chat-1-echo","plugin-game-iframe","7","1124345","0.0-7.0","6980e32bc22bae8cb57154ed","6987c292780adf01bb926159","69a4db00031db13ee84260bc","game-complete","ended:win","{""stage"":""ended:win"",""detail"":{""gameState"":""WIN"",""relicCollected"":true,""exitOpen"":true,""alertsCount"":2,""timeLeftMs"":236815.08000001663}}","{""reason"":""WIN"",""alertsCount"":2,""timeLeft"":236815.08000001663}","null","[{""key"":"" "",""event"":""keyup"",""t"":110},{""key"":"" "",""event"":""keydown"",""t"":6628},{""key"":"" "",""event"":""keyup"",""t"":6757},{""key"":""ArrowRight"",""event"":""keydown"",""t"":11672},{""key"":""ArrowRight"",""event"":""keyup"",""t"":11927},{""key"":""ArrowRight"",""event"":""keydown"",""t"":12209},{""key"":""ArrowRight"",""event"":""keydown"",""t"":12698},{""key"":""ArrowRight"",""event"":""keydown"",""t"":12728},{""key"":""ArrowRight"",""event"":""keydown"",""t"":12757},{""key"":""ArrowRight"",""event"":""keydown"",""t"":12788},{""key"":""ArrowRight"",""event"":""keydown"",""t"":12824},{""key"":""ArrowRight"",""event"":""keydown"",""t"":12854},{""key"":""ArrowRight"",""event"":""keydown"",""t"":12884},{""key"":""ArrowRight"",""event"":""keydown"",""t"":12913},{""key"":""ArrowRight"",""event"":""keydown"",""t"":12943},{""key"":""ArrowRight"",""event"":""keydown"",""t"":12972},{""key"":""ArrowRight"",""event"":""keydown"",""t"":13005},{""key"":""ArrowRight"",""event"":""keydown"",""t"":13032},{""key"":""ArrowRight"",""event"":""keydown"",""t"":13061},{""key"":""ArrowRight"",""event"":""keydown"",""t"":13092},{""key"":""ArrowRight"",""event"":""keydown"",""t"":13121},{""key"":""ArrowRight"",""event"":""keydown"",""t"":13150},{""key"":""ArrowRight"",""event"":""keydown"",""t"":13180},{""key"":""ArrowRight"",""event"":""keydown"",""t"":13210},{""key"":""ArrowRight"",""event"":""keydown"",""t"":13239},{""key"":""ArrowRight"",""event"":""keydown"",""t"":13272},{""key"":""ArrowRight"",""event"":""keydown"",""t"":13298},{""key"":""ArrowRight"",""event"":""keydown"",""t"":13328},{""key"":""ArrowRight"",""event"":""keydown"",""t"":13357},{""key"":""ArrowRight"",""event"":""keydown"",""t"":13388},{""key"":""ArrowRight"",""event"":""keydown"",""t"":13417},{""key"":""ArrowRight"",""event"":""keydown"",""t"":13446},{""key"":""ArrowRight"",""event"":""keydown"",""t"":13476},{""key"":""ArrowRight"",""event"":""keydown"",""t"":13505},{""key"":""ArrowRight"",""event"":""keydown"",""t"":13537},{""key"":""ArrowRight"",""event"":""keydown"",""t"":13565},{""key"":""ArrowRight"",""event"":""keydown"",""t"":13594},{""key"":""ArrowRight"",""event"":""keydown"",""t"":13624},{""key"":""ArrowRight"",""event"":""keydown"",""t"":13655},{""key"":""ArrowRight"",""event"":""keydown"",""t"":13683},{""key"":""ArrowRight"",""event"":""keyup"",""t"":13729},{""key"":""ArrowUp"",""event"":""keydown"",""t"":14007},{""key"":""ArrowUp"",""event"":""keydown"",""t"":14497},{""key"":""ArrowUp"",""event"":""keydown"",""t"":14527},{""key"":""ArrowUp"",""event"":""keydown"",""t"":14556},{""key"":""ArrowUp"",""event"":""keydown"",""t"":14588},{""key"":""ArrowUp"",""event"":""keydown"",""t"":14616},{""key"":""ArrowUp"",""event"":""keydown"",""t"":14645},{""key"":""ArrowUp"",""event"":""keyup"",""t"":14688},{""key"":""ArrowUp"",""event"":""keydown"",""t"":14950},{""key"":""ArrowUp"",""event"":""keyup"",""t"":14977},{""key"":""ArrowUp"",""event"":""keydown"",""t"":15006},{""key"":""ArrowUp"",""event"":""keyup"",""t"":15158},{""key"":""ArrowLeft"",""event"":""keydown"",""t"":15334},{""key"":""ArrowLeft"",""event"":""keyup"",""t"":15488},{""key"":""ArrowRight"",""event"":""keydown"",""t"":15842},{""key"":""ArrowRight"",""event"":""keyup"",""t"":16076},{""key"":""ArrowUp"",""event"":""keydown"",""t"":16276},{""key"":""ArrowUp"",""event"":""keyup"",""t"":16446},{""key"":""ArrowUp"",""event"":""keydown"",""t"":16708},{""key"":""ArrowUp"",""event"":""keyup"",""t"":16823},{""key"":""ArrowLeft"",""event"":""keydown"",""t"":16972},{""key"":""ArrowLeft"",""event"":""keyup"",""t"":17014},{""key"":""ArrowUp"",""event"":""keydown"",""t"":17377},{""key"":""ArrowUp"",""event"":""keyup"",""t"":17800},{""key"":""ArrowUp"",""event"":""keydown"",""t"":17896},{""key"":""ArrowUp"",""event"":""keyup"",""t"":18004},{""key"":""ArrowLeft"",""event"":""keydown"",""t"":18187},{""key"":""ArrowLeft"",""event"":""keyup"",""t"":18654},{""key"":""ArrowDown"",""event"":""keydown"",""t"":18780},{""key"":""ArrowDown"",""event"":""keydown"",""t"":19270},{""key"":""ArrowDown"",""event"":""keydown"",""t"":19303},{""key"":""ArrowDown"",""event"":""keydown"",""t"":19330},{""key"":""ArrowDown"",""event"":""keydown"",""t"":19359},{""key"":""ArrowDown"",""event"":""keydown"",""t"":19389},{""key"":""ArrowDown"",""event"":""keydown"",""t"":19420},{""key"":""ArrowDown"",""event"":""keyup"",""t"":19445},{""key"":""ArrowRight"",""event"":""keydown"",""t"":19479},{""key"":""ArrowRight"",""event"":""keydown"",""t"":19969},{""key"":""ArrowRight"",""event"":""keydown"",""t"":19999},{""key"":""ArrowRight"",""event"":""keydown"",""t"":20028},{""key"":""ArrowRight"",""event"":""keydown"",""t"":20058},{""key"":""ArrowDown"",""event"":""keydown"",""t"":20072},{""key"":""ArrowRight"",""event"":""keyup"",""t"":20091},{""key"":""ArrowDown"",""event"":""keydown"",""t"":20579},{""key"":""ArrowDown"",""event"":""keydown"",""t"":20608},{""key"":""ArrowDown"",""event"":""keydown"",""t"":20637},{""key"":""ArrowDown"",""event"":""keydown"",""t"":20669},{""key"":""ArrowDown"",""event"":""keydown"",""t"":20696},{""key"":""ArrowDown"",""event"":""keydown"",""t"":20726},{""key"":""ArrowDown"",""event"":""keydown"",""t"":20756},{""key"":""ArrowDown"",""event"":""keydown"",""t"":20786},{""key"":""ArrowDown"",""event"":""keydown"",""t"":20815},{""key"":""ArrowDown"",""event"":""keydown"",""t"":20844},{""key"":""ArrowDown"",""event"":""keydown"",""t"":20874},{""key"":""ArrowDown"",""event"":""keydown"",""t"":20904},{""key"":""ArrowDown"",""event"":""keydown"",""t"":20937},{""key"":""ArrowDown"",""event"":""keydown"",""t"":20963},{""key"":""ArrowDown"",""event"":""keydown"",""t"":20992},{""key"":""ArrowDown"",""event"":""keydown"",""t"":21022},{""key"":""ArrowDown"",""event"":""keydown"",""t"":21052},{""key"":""ArrowDown"",""event"":""keyup"",""t"":21095},{""key"":""ArrowDown"",""event"":""keydown"",""t"":21686},{""key"":""ArrowDown"",""event"":""keyup"",""t"":21952},{""key"":""ArrowRight"",""event"":""keydown"",""t"":22052},{""key"":""ArrowRight"",""event"":""keydown"",""t"":22542},{""key"":""ArrowRight"",""event"":""keydown"",""t"":22572},{""key"":""ArrowRight"",""event"":""keydown"",""t"":22603},{""key"":""ArrowRight"",""event"":""keydown"",""t"":22636},{""key"":""ArrowRight"",""event"":""keydown"",""t"":22662},{""key"":""ArrowRight"",""event"":""keydown"",""t"":22692},{""key"":""ArrowRight"",""event"":""keydown"",""t"":22722},{""key"":""ArrowRight"",""event"":""keydown"",""t"":22752},{""key"":""ArrowRight"",""event"":""keydown"",""t"":22781},{""key"":""ArrowRight"",""event"":""keydown"",""t"":22810},{""key"":""ArrowRight"",""event"":""keydown"",""t"":22840},{""key"":""ArrowRight"",""event"":""keydown"",""t"":22869},{""key"":""ArrowRight"",""event"":""keydown"",""t"":22902},{""key"":""ArrowRight"",""event"":""keydown"",""t"":22929},{""key"":""ArrowRight"",""event"":""keydown"",""t"":22958},{""key"":""ArrowRight"",""event"":""keydown"",""t"":22988},{""key"":""ArrowRight"",""event"":""keydown"",""t"":23019},{""key"":""ArrowRight"",""event"":""keydown"",""t"":23047},{""key"":""ArrowRight"",""event"":""keydown"",""t"":23077},{""key"":""ArrowRight"",""event"":""keydown"",""t"":23107},{""key"":""ArrowRight"",""event"":""keydown"",""t"":23137},{""key"":""ArrowRight"",""event"":""keydown"",""t"":23169},{""key"":""ArrowRight"",""event"":""keydown"",""t"":23195},{""key"":""ArrowRight"",""event"":""keydown"",""t"":23225},{""key"":""ArrowRight"",""event"":""keydown"",""t"":23255},{""key"":""ArrowRight"",""event"":""keydown"",""t"":23285},{""key"":""ArrowRight"",""event"":""keydown"",""t"":23313},{""key"":""ArrowRight"",""event"":""keydown"",""t"":23344},{""key"":""ArrowRight"",""event"":""keydown"",""t"":23374},{""key"":""ArrowRight"",""event"":""keydown"",""t"":23403},{""key"":""ArrowRight"",""event"":""keydown"",""t"":23435},{""key"":""ArrowRight"",""event"":""keydown"",""t"":23462},{""key"":""ArrowRight"",""event"":""keydown"",""t"":23491},{""key"":""ArrowRight"",""event"":""keydown"",""t"":23521},{""key"":""ArrowRight"",""event"":""keydown"",""t"":23552},{""key"":""ArrowRight"",""event"":""keydown"",""t"":23585},{""key"":""ArrowRight"",""event"":""keydown"",""t"":23613},{""key"":""ArrowRight"",""event"":""keydown"",""t"":23643},{""key"":""ArrowRight"",""event"":""keydown"",""t"":23672},{""key"":""ArrowRight"",""event"":""keydown"",""t"":23702},{""key"":""ArrowRight"",""event"":""keydown"",""t"":23731},{""key"":""ArrowRight"",""event"":""keydown"",""t"":23761},{""key"":""ArrowRight"",""event"":""keydown"",""t"":23791},{""key"":""ArrowRight"",""event"":""keydown"",""t"":23820},{""key"":""ArrowRight"",""event"":""keydown"",""t"":23852},{""key"":""ArrowRight"",""event"":""keydown"",""t"":23879},{""key"":""ArrowRight"",""event"":""keydown"",""t"":23909},{""key"":""ArrowRight"",""event"":""keydown"",""t"":23939},{""key"":""ArrowRight"",""event"":""keydown"",""t"":23968},{""key"":""ArrowRight"",""event"":""keydown"",""t"":23997},{""key"":""ArrowRight"",""event"":""keydown"",""t"":24027},{""key"":""ArrowRight"",""event"":""keydown"",""t"":24057},{""key"":""ArrowRight"",""event"":""keydown"",""t"":24086},{""key"":""ArrowRight"",""event"":""keydown"",""t"":24118},{""key"":""ArrowRight"",""event"":""keydown"",""t"":24147},{""key"":""ArrowRight"",""event"":""keydown"",""t"":24176},{""key"":""ArrowRight"",""event"":""keydown"",""t"":24206},{""key"":""ArrowRight"",""event"":""keydown"",""t"":24236},{""key"":""ArrowRight"",""event"":""keydown"",""t"":24268},{""key"":""ArrowRight"",""event"":""keydown"",""t"":24295},{""key"":""ArrowRight"",""event"":""keydown"",""t"":24325},{""key"":""ArrowRight"",""event"":""keydown"",""t"":24354},{""key"":""ArrowRight"",""event"":""keydown"",""t"":24385},{""key"":""ArrowRight"",""event"":""keydown"",""t"":24414},{""key"":""ArrowRight"",""event"":""keydown"",""t"":24443},{""key"":""ArrowRight"",""event"":""keydown"",""t"":24473},{""key"":""ArrowRight"",""event"":""keydown"",""t"":24502},{""key"":""ArrowRight"",""event"":""keydown"",""t"":24544},{""key"":""ArrowRight"",""event"":""keydown"",""t"":24573},{""key"":""ArrowRight"",""event"":""keydown"",""t"":24604},{""key"":""ArrowRight"",""event"":""keydown"",""t"":24635},{""key"":""ArrowRight"",""event"":""keydown"",""t"":24663},{""key"":""ArrowRight"",""event"":""keydown"",""t"":24692},{""key"":""ArrowRight"",""event"":""keydown"",""t"":24721},{""key"":""ArrowRight"",""event"":""keydown"",""t"":24753},{""key"":""ArrowRight"",""event"":""keydown"",""t"":24781},{""key"":""ArrowRight"",""event"":""keydown"",""t"":24810},{""key"":""ArrowRight"",""event"":""keydown"",""t"":24840},{""key"":""ArrowRight"",""event"":""keydown"",""t"":24870},{""key"":""ArrowRight"",""event"":""keydown"",""t"":24902},{""key"":""ArrowRight"",""event"":""keydown"",""t"":24929},{""key"":""ArrowRight"",""event"":""keydown"",""t"":24958},{""key"":""ArrowRight"",""event"":""keydown"",""t"":24988},{""key"":""ArrowRight"",""event"":""keydown"",""t"":25019},{""key"":""ArrowRight"",""event"":""keydown"",""t"":25047},{""key"":""ArrowRight"",""event"":""keydown"",""t"":25077},{""key"":""ArrowRight"",""event"":""keydown"",""t"":25108},{""key"":""ArrowRight"",""event"":""keydown"",""t"":25137},{""key"":""ArrowRight"",""event"":""keydown"",""t"":25168},{""key"":""ArrowRight"",""event"":""keydown"",""t"":25196},{""key"":""ArrowRight"",""event"":""keydown"",""t"":25226},{""key"":""ArrowRight"",""event"":""keydown"",""t"":25255},{""key"":""ArrowRight"",""event"":""keydown"",""t"":25285},{""key"":""ArrowRight"",""event"":""keydown"",""t"":25315},{""key"":""ArrowRight"",""event"":""keydown"",""t"":25345},{""key"":""ArrowRight"",""event"":""keydown"",""t"":25374},{""key"":""ArrowRight"",""event"":""keydown"",""t"":25404},{""key"":""ArrowRight"",""event"":""keydown"",""t"":25434},{""key"":""ArrowRight"",""event"":""keydown"",""t"":25463},{""key"":""ArrowRight"",""event"":""keydown"",""t"":25493},{""key"":""ArrowRight"",""event"":""keydown"",""t"":25523},{""key"":""ArrowRight"",""event"":""keydown"",""t"":25553},{""key"":""ArrowRight"",""event"":""keydown"",""t"":25584},{""key"":""ArrowRight"",""event"":""keydown"",""t"":25612},{""key"":""ArrowRight"",""event"":""keydown"",""t"":25642},{""key"":""ArrowRight"",""event"":""keydown"",""t"":25671},{""key"":""ArrowRight"",""event"":""keydown"",""t"":25701},{""key"":""ArrowRight"",""event"":""keydown"",""t"":25730},{""key"":""ArrowRight"",""event"":""keydown"",""t"":25760},{""key"":""ArrowRight"",""event"":""keydown"",""t"":25789},{""key"":""ArrowRight"",""event"":""keydown"",""t"":25819},{""key"":""ArrowRight"",""event"":""keydown"",""t"":25851},{""key"":""ArrowRight"",""event"":""keydown"",""t"":25879},{""key"":""ArrowRight"",""event"":""keydown"",""t"":25908},{""key"":""ArrowRight"",""event"":""keydown"",""t"":25937},{""key"":""ArrowRight"",""event"":""keydown"",""t"":25969},{""key"":""ArrowRight"",""event"":""keydown"",""t"":25997},{""key"":""ArrowRight"",""event"":""keydown"",""t"":26027},{""key"":""ArrowRight"",""event"":""keydown"",""t"":26056},{""key"":""ArrowRight"",""event"":""keydown"",""t"":26085},{""key"":""ArrowRight"",""event"":""keydown"",""t"":26119},{""key"":""ArrowRight"",""event"":""keydown"",""t"":26146},{""key"":""ArrowRight"",""event"":""keydown"",""t"":26175},{""key"":""ArrowRight"",""event"":""keydown"",""t"":26205},{""key"":""ArrowRight"",""event"":""keydown"",""t"":26236},{""key"":""ArrowRight"",""event"":""keydown"",""t"":26265},{""key"":""ArrowRight"",""event"":""keydown"",""t"":26294},{""key"":""ArrowRight"",""event"":""keydown"",""t"":26324},{""key"":""ArrowRight"",""event"":""keydown"",""t"":26354},{""key"":""ArrowRight"",""event"":""keydown"",""t"":26385},{""key"":""ArrowRight"",""event"":""keydown"",""t"":26413},{""key"":""ArrowRight"",""event"":""keydown"",""t"":26443},{""key"":""ArrowRight"",""event"":""keydown"",""t"":26472},{""key"":""ArrowRight"",""event"":""keydown"",""t"":26503},{""key"":""ArrowRight"",""event"":""keydown"",""t"":26535},{""key"":""ArrowRight"",""event"":""keydown"",""t"":26563},{""key"":""ArrowRight"",""event"":""keydown"",""t"":26592},{""key"":""ArrowRight"",""event"":""keydown"",""t"":26621},{""key"":""ArrowRight"",""event"":""keydown"",""t"":26651},{""key"":""ArrowRight"",""event"":""keydown"",""t"":26680},{""key"":""ArrowRight"",""event"":""keydown"",""t"":26710},{""key"":""ArrowRight"",""event"":""keydown"",""t"":26739},{""key"":""ArrowRight"",""event"":""keydown"",""t"":26769},{""key"":""ArrowRight"",""event"":""keydown"",""t"":26801},{""key"":""ArrowRight"",""event"":""keydown"",""t"":26829},{""key"":""ArrowRight"",""event"":""keydown"",""t"":26858},{""key"":""ArrowRight"",""event"":""keydown"",""t"":26887},{""key"":""ArrowRight"",""event"":""keydown"",""t"":26918},{""key"":""ArrowRight"",""event"":""keydown"",""t"":26947},{""key"":""ArrowRight"",""event"":""keydown"",""t"":26977},{""key"":""ArrowRight"",""event"":""keydown"",""t"":27006},{""key"":""ArrowRight"",""event"":""keydown"",""t"":27036},{""key"":""ArrowRight"",""event"":""keydown"",""t"":27068},{""key"":""ArrowRight"",""event"":""keydown"",""t"":27095},{""key"":""ArrowRight"",""event"":""keydown"",""t"":27125},{""key"":""ArrowRight"",""event"":""keydown"",""t"":27155},{""key"":""ArrowRight"",""event"":""keydown"",""t"":27185},{""key"":""ArrowRight"",""event"":""keydown"",""t"":27214},{""key"":""ArrowRight"",""event"":""keydown"",""t"":27244},{""key"":""ArrowRight"",""event"":""keydown"",""t"":27273},{""key"":""ArrowRight"",""event"":""keydown"",""t"":27303},{""key"":""ArrowRight"",""event"":""keydown"",""t"":27335},{""key"":""ArrowRight"",""event"":""keydown"",""t"":27362},{""key"":""ArrowRight"",""event"":""keydown"",""t"":27392},{""key"":""ArrowRight"",""event"":""keydown"",""t"":27422},{""key"":""ArrowRight"",""event"":""keydown"",""t"":27451},{""key"":""ArrowRight"",""event"":""keydown"",""t"":27480},{""key"":""ArrowRight"",""event"":""keydown"",""t"":27509},{""key"":""ArrowRight"",""event"":""keydown"",""t"":27539},{""key"":""ArrowRight"",""event"":""keydown"",""t"":27569},{""key"":""ArrowRight"",""event"":""keydown"",""t"":27601},{""key"":""ArrowRight"",""event"":""keydown"",""t"":27628},{""key"":""ArrowRight"",""event"":""keydown"",""t"":27657},{""key"":""ArrowRight"",""event"":""keyup"",""t"":27684},{""key"":""ArrowUp"",""event"":""keydown"",""t"":27815},{""key"":""ArrowUp"",""event"":""keydown"",""t"":28304},{""key"":""ArrowUp"",""event"":""keydown"",""t"":28334},{""key"":""ArrowUp"",""event"":""keydown"",""t"":28363},{""key"":""ArrowUp"",""event"":""keydown"",""t"":28392},{""key"":""ArrowUp"",""event"":""keydown"",""t"":28422},{""key"":""ArrowUp"",""event"":""keydown"",""t"":28453},{""key"":""ArrowUp"",""event"":""keydown"",""t"":28484},{""key"":""ArrowUp"",""event"":""keydown"",""t"":28512},{""key"":""ArrowUp"",""event"":""keydown"",""t"":28541},{""key"":""ArrowUp"",""event"":""keydown"",""t"":28571},{""key"":""ArrowUp"",""event"":""keydown"",""t"":28601},{""key"":""ArrowUp"",""event"":""keydown"",""t"":28630},{""key"":""ArrowUp"",""event"":""keydown"",""t"":28660},{""key"":""ArrowUp"",""event"":""keydown"",""t"":28689},{""key"":""ArrowUp"",""event"":""keydown"",""t"":28719},{""key"":""ArrowUp"",""event"":""keydown"",""t"":28750},{""key"":""ArrowUp"",""event"":""keydown"",""t"":28779},{""key"":""ArrowUp"",""event"":""keydown"",""t"":28808},{""key"":""ArrowUp"",""event"":""keydown"",""t"":28837},{""key"":""ArrowUp"",""event"":""keydown"",""t"":28867},{""key"":""ArrowUp"",""event"":""keydown"",""t"":28897},{""key"":""ArrowUp"",""event"":""keydown"",""t"":28926},{""key"":""ArrowUp"",""event"":""keydown"",""t"":28956},{""key"":""ArrowUp"",""event"":""keydown"",""t"":28986},{""key"":""ArrowUp"",""event"":""keydown"",""t"":29016},{""key"":""ArrowUp"",""event"":""keydown"",""t"":29045},{""key"":""ArrowUp"",""event"":""keydown"",""t"":29075},{""key"":""ArrowUp"",""event"":""keydown"",""t"":29104},{""key"":""ArrowUp"",""event"":""keydown"",""t"":29135},{""key"":""ArrowUp"",""event"":""keydown"",""t"":29164},{""key"":""ArrowUp"",""event"":""keydown"",""t"":29194},{""key"":""ArrowUp"",""event"":""keydown"",""t"":29223},{""key"":""ArrowUp"",""event"":""keydown"",""t"":29254},{""key"":""ArrowUp"",""event"":""keydown"",""t"":29284},{""key"":""ArrowUp"",""event"":""keydown"",""t"":29312},{""key"":""ArrowUp"",""event"":""keydown"",""t"":29342},{""key"":""ArrowUp"",""event"":""keydown"",""t"":29371},{""key"":""ArrowUp"",""event"":""keydown"",""t"":29401},{""key"":""ArrowUp"",""event"":""keydown"",""t"":29434},{""key"":""ArrowUp"",""event"":""keydown"",""t"":29463},{""key"":""ArrowUp"",""event"":""keydown"",""t"":29492},{""key"":""ArrowUp"",""event"":""keydown"",""t"":29522},{""key"":""ArrowUp"",""event"":""keydown"",""t"":29551},{""key"":""ArrowUp"",""event"":""keydown"",""t"":29583},{""key"":""ArrowUp"",""event"":""keydown"",""t"":29610},{""key"":""ArrowUp"",""event"":""keydown"",""t"":29640},{""key"":""ArrowUp"",""event"":""keydown"",""t"":29670},{""key"":""ArrowUp"",""event"":""keydown"",""t"":29701},{""key"":""ArrowUp"",""event"":""keydown"",""t"":29729},{""key"":""ArrowUp"",""event"":""keydown"",""t"":29758},{""key"":""ArrowUp"",""event"":""keyup"",""t"":29811},{""key"":""ArrowRight"",""event"":""keydown"",""t"":29945},{""key"":""ArrowRight"",""event"":""keydown"",""t"":30436},{""key"":""ArrowRight"",""event"":""keydown"",""t"":30467},{""key"":""ArrowRight"",""event"":""keydown"",""t"":30495},{""key"":""ArrowRight"",""event"":""keydown"",""t"":30524},{""key"":""ArrowRight"",""event"":""keydown"",""t"":30554},{""key"":""ArrowRight"",""event"":""keyup"",""t"":30593},{""key"":""ArrowUp"",""event"":""keydown"",""t"":30611},{""key"":""ArrowUp"",""event"":""keyup"",""t"":30746},{""key"":""ArrowRight"",""event"":""keydown"",""t"":30786},{""key"":""ArrowRight"",""event"":""keydown"",""t"":31277},{""key"":""ArrowRight"",""event"":""keydown"",""t"":31307},{""key"":""ArrowRight"",""event"":""keydown"",""t"":31337},{""key"":""ArrowRight"",""event"":""keydown"",""t"":31367},{""key"":""ArrowRight"",""event"":""keydown"",""t"":31396},{""key"":""ArrowRight"",""event"":""keydown"",""t"":31425},{""key"":""ArrowRight"",""event"":""keydown"",""t"":31455},{""key"":""ArrowRight"",""event"":""keydown"",""t"":31485},{""key"":""ArrowRight"",""event"":""keyup"",""t"":31537},{""key"":""ArrowRight"",""event"":""keydown"",""t"":31628},{""key"":""ArrowRight"",""event"":""keyup"",""t"":31817},{""key"":""ArrowUp"",""event"":""keydown"",""t"":31904},{""key"":""ArrowUp"",""event"":""keyup"",""t"":32055},{""key"":""ArrowRight"",""event"":""keydown"",""t"":32110},{""key"":""ArrowRight"",""event"":""keyup"",""t"":32623},{""key"":""ArrowRight"",""event"":""keydown"",""t"":32742},{""key"":""ArrowRight"",""event"":""keyup"",""t"":32833},{""key"":""ArrowRight"",""event"":""keydown"",""t"":32939},{""key"":""ArrowRight"",""event"":""keyup"",""t"":32999},{""key"":""ArrowRight"",""event"":""keydown"",""t"":33079},{""key"":""ArrowRight"",""event"":""keyup"",""t"":33191},{""key"":""ArrowUp"",""event"":""keydown"",""t"":33309},{""key"":""ArrowRight"",""event"":""keydown"",""t"":33533},{""key"":""ArrowUp"",""event"":""keyup"",""t"":33543},{""key"":""ArrowRight"",""event"":""keyup"",""t"":33645},{""key"":""ArrowRight"",""event"":""keydown"",""t"":33759},{""key"":""ArrowRight"",""event"":""keyup"",""t"":33943},{""key"":""ArrowDown"",""event"":""keydown"",""t"":33958},{""key"":""ArrowDown"",""event"":""keydown"",""t"":34450},{""key"":""ArrowDown"",""event"":""keydown"",""t"":34477},{""key"":""ArrowDown"",""event"":""keydown"",""t"":34506},{""key"":""ArrowDown"",""event"":""keydown"",""t"":34536},{""key"":""ArrowDown"",""event"":""keydown"",""t"":34566},{""key"":""ArrowDown"",""event"":""keydown"",""t"":34596},{""key"":""ArrowDown"",""event"":""keydown"",""t"":34625},{""key"":""ArrowDown"",""event"":""keydown"",""t"":34655},{""key"":""ArrowDown"",""event"":""keydown"",""t"":34685},{""key"":""ArrowDown"",""event"":""keydown"",""t"":34716},{""key"":""ArrowDown"",""event"":""keydown"",""t"":34744},{""key"":""ArrowDown"",""event"":""keydown"",""t"":34773},{""key"":""ArrowDown"",""event"":""keydown"",""t"":34803},{""key"":""ArrowDown"",""event"":""keydown"",""t"":34833},{""key"":""ArrowDown"",""event"":""keydown"",""t"":34862},{""key"":""ArrowDown"",""event"":""keydown"",""t"":34892},{""key"":""ArrowDown"",""event"":""keydown"",""t"":34921},{""key"":""ArrowDown"",""event"":""keydown"",""t"":34951},{""key"":""ArrowDown"",""event"":""keydown"",""t"":34982},{""key"":""ArrowDown"",""event"":""keydown"",""t"":35010},{""key"":""ArrowDown"",""event"":""keyup"",""t"":35066},{""key"":""ArrowRight"",""event"":""keydown"",""t"":35066},{""key"":""ArrowRight"",""event"":""keydown"",""t"":35555},{""key"":""ArrowRight"",""event"":""keydown"",""t"":35585},{""key"":""ArrowRight"",""event"":""keydown"",""t"":35616},{""key"":""ArrowRight"",""event"":""keydown"",""t"":35644},{""key"":""ArrowRight"",""event"":""keydown"",""t"":35674},{""key"":""ArrowRight"",""event"":""keydown"",""t"":35703},{""key"":""ArrowRight"",""event"":""keydown"",""t"":35733},{""key"":""ArrowRight"",""event"":""keydown"",""t"":35766},{""key"":""ArrowDown"",""event"":""keydown"",""t"":35782},{""key"":""ArrowRight"",""event"":""keyup"",""t"":35826},{""key"":""ArrowRight"",""event"":""keydown"",""t"":36003},{""key"":""ArrowDown"",""event"":""keyup"",""t"":36032},{""key"":""ArrowDown"",""event"":""keydown"",""t"":36322},{""key"":""ArrowRight"",""event"":""keyup"",""t"":36362},{""key"":""ArrowRight"",""event"":""keydown"",""t"":36519},{""key"":""ArrowDown"",""event"":""keyup"",""t"":36543},{""key"":""ArrowRight"",""event"":""keydown"",""t"":37031},{""key"":""ArrowRight"",""event"":""keydown"",""t"":37059},{""key"":""ArrowRight"",""event"":""keyup"",""t"":37088},{""key"":""ArrowRight"",""event"":""keydown"",""t"":37153},{""key"":""ArrowRight"",""event"":""keyup"",""t"":37365},{""key"":""ArrowUp"",""event"":""keydown"",""t"":37365},{""key"":""ArrowUp"",""event"":""keydown"",""t"":37853},{""key"":""ArrowUp"",""event"":""keydown"",""t"":37883},{""key"":""ArrowUp"",""event"":""keydown"",""t"":37915},{""key"":""ArrowUp"",""event"":""keydown"",""t"":37942},{""key"":""ArrowUp"",""event"":""keydown"",""t"":37972},{""key"":""ArrowUp"",""event"":""keydown"",""t"":38001},{""key"":""ArrowUp"",""event"":""keydown"",""t"":38032},{""key"":""ArrowUp"",""event"":""keydown"",""t"":38061},{""key"":""ArrowUp"",""event"":""keydown"",""t"":38091},{""key"":""ArrowUp"",""event"":""keydown"",""t"":38120},{""key"":""ArrowUp"",""event"":""keydown"",""t"":38150},{""key"":""ArrowUp"",""event"":""keydown"",""t"":38181},{""key"":""ArrowUp"",""event"":""keydown"",""t"":38215},{""key"":""ArrowUp"",""event"":""keydown"",""t"":38245},{""key"":""ArrowUp"",""event"":""keydown"",""t"":38275},{""key"":""ArrowUp"",""event"":""keydown"",""t"":38304},{""key"":""ArrowUp"",""event"":""keydown"",""t"":38334},{""key"":""ArrowUp"",""event"":""keydown"",""t"":38365},{""key"":""ArrowUp"",""event"":""keydown"",""t"":38394},{""key"":""ArrowUp"",""event"":""keydown"",""t"":38423},{""key"":""ArrowUp"",""event"":""keydown"",""t"":38453},{""key"":""ArrowUp"",""event"":""keydown"",""t"":38483},{""key"":""ArrowUp"",""event"":""keydown"",""t"":38515},{""key"":""ArrowUp"",""event"":""keydown"",""t"":38542},{""key"":""ArrowUp"",""event"":""keydown"",""t"":38571},{""key"":""ArrowUp"",""event"":""keydown"",""t"":38601},{""key"":""ArrowUp"",""event"":""keydown"",""t"":38632},{""key"":""ArrowUp"",""event"":""keydown"",""t"":38660},{""key"":""ArrowUp"",""event"":""keydown"",""t"":38690},{""key"":""ArrowUp"",""event"":""keydown"",""t"":38719},{""key"":""ArrowUp"",""event"":""keydown"",""t"":38749},{""key"":""ArrowUp"",""event"":""keydown"",""t"":38781},{""key"":""ArrowUp"",""event"":""keyup"",""t"":38825},{""key"":""ArrowLeft"",""event"":""keydown"",""t"":39086},{""key"":""ArrowLeft"",""event"":""keyup"",""t"":39238},{""key"":""ArrowUp"",""event"":""keydown"",""t"":39331},{""key"":""ArrowRight"",""event"":""keydown"",""t"":39337},{""key"":""ArrowRight"",""event"":""keyup"",""t"":39367},{""key"":""ArrowRight"",""event"":""keydown"",""t"":39791},{""key"":""ArrowUp"",""event"":""keyup"",""t"":39874},{""key"":""ArrowRight"",""event"":""keydown"",""t"":40359},{""key"":""ArrowRight"",""event"":""keydown"",""t"":40389},{""key"":""ArrowRight"",""event"":""keydown"",""t"":40418},{""key"":""ArrowRight"",""event"":""keydown"",""t"":40448},{""key"":""ArrowRight"",""event"":""keydown"",""t"":40478},{""key"":""ArrowRight"",""event"":""keyup"",""t"":40531},{""key"":""ArrowUp"",""event"":""keydown"",""t"":40544},{""key"":""ArrowUp"",""event"":""keyup"",""t"":40955},{""key"":""ArrowUp"",""event"":""keydown"",""t"":41050},{""key"":""ArrowUp"",""event"":""keyup"",""t"":41191},{""key"":""ArrowLeft"",""event"":""keydown"",""t"":41337},{""key"":""ArrowLeft"",""event"":""keyup"",""t"":41604},{""key"":""ArrowDown"",""event"":""keydown"",""t"":41731},{""key"":""ArrowDown"",""event"":""keyup"",""t"":42307},{""key"":""ArrowRight"",""event"":""keydown"",""t"":42517},{""key"":""ArrowRight"",""event"":""keydown"",""t"":43006},{""key"":""ArrowRight"",""event"":""keydown"",""t"":43036},{""key"":""ArrowRight"",""event"":""keydown"",""t"":43066},{""key"":""ArrowRight"",""event"":""keydown"",""t"":43098},{""key"":""ArrowRight"",""event"":""keydown"",""t"":43130},{""key"":""ArrowRight"",""event"":""keyup"",""t"":43157},{""key"":""ArrowDown"",""event"":""keydown"",""t"":43211},{""key"":""ArrowDown"",""event"":""keyup"",""t"":43333},{""key"":""ArrowRight"",""event"":""keydown"",""t"":43357},{""key"":""ArrowDown"",""event"":""keydown"",""t"":43690},{""key"":""ArrowRight"",""event"":""keyup"",""t"":43693},{""key"":""ArrowRight"",""event"":""keydown"",""t"":43825},{""key"":""ArrowDown"",""event"":""keyup"",""t"":43854},{""key"":""ArrowDown"",""event"":""keydown"",""t"":44154},{""key"":""ArrowRight"",""event"":""keyup"",""t"":44180},{""key"":""ArrowRight"",""event"":""keydown"",""t"":44299},{""key"":""ArrowDown"",""event"":""keyup"",""t"":44327},{""key"":""ArrowRight"",""event"":""keydown"",""t"":44810},{""key"":""ArrowRight"",""event"":""keydown"",""t"":44840},{""key"":""ArrowRight"",""event"":""keyup"",""t"":44876},{""key"":""ArrowRight"",""event"":""keydown"",""t"":44920},{""key"":""ArrowRight"",""event"":""keyup"",""t"":45513},{""key"":""ArrowUp"",""event"":""keydown"",""t"":45684},{""key"":""ArrowUp"",""event"":""keyup"",""t"":46000},{""key"":""ArrowLeft"",""event"":""keydown"",""t"":46272},{""key"":""ArrowLeft"",""event"":""keyup"",""t"":46389},{""key"":""ArrowDown"",""event"":""keydown"",""t"":47637},{""key"":""ArrowDown"",""event"":""keyup"",""t"":47864},{""key"":""ArrowLeft"",""event"":""keydown"",""t"":48068},{""key"":""ArrowLeft"",""event"":""keydown"",""t"":48555},{""key"":""ArrowLeft"",""event"":""keydown"",""t"":48585},{""key"":""ArrowLeft"",""event"":""keydown"",""t"":48615},{""key"":""ArrowLeft"",""event"":""keydown"",""t"":48646},{""key"":""ArrowLeft"",""event"":""keydown"",""t"":48674},{""key"":""ArrowLeft"",""event"":""keydown"",""t"":48704},{""key"":""ArrowLeft"",""event"":""keydown"",""t"":48733},{""key"":""ArrowLeft"",""event"":""keydown"",""t"":48763},{""key"":""ArrowLeft"",""event"":""keydown"",""t"":48792},{""key"":""ArrowLeft"",""event"":""keyup"",""t"":48838},{""key"":""ArrowDown"",""event"":""keydown"",""t"":48915},{""key"":""ArrowDown"",""event"":""keyup"",""t"":49109},{""key"":""ArrowLeft"",""event"":""keydown"",""t"":49183},{""key"":""ArrowDown"",""event"":""keydown"",""t"":49595},{""key"":""ArrowLeft"",""event"":""keyup"",""t"":49629},{""key"":""ArrowDown"",""event"":""keyup"",""t"":49990},{""key"":""ArrowLeft"",""event"":""keydown"",""t"":50095},{""key"":""ArrowLeft"",""event"":""keyup"",""t"":50438},{""key"":""ArrowUp"",""event"":""keydown"",""t"":50450},{""key"":""ArrowUp"",""event"":""keydown"",""t"":50940},{""key"":""ArrowUp"",""event"":""keyup"",""t"":50987},{""key"":""ArrowLeft"",""event"":""keydown"",""t"":50997},{""key"":""ArrowLeft"",""event"":""keyup"",""t"":51441},{""key"":""ArrowUp"",""event"":""keydown"",""t"":51561},{""key"":""ArrowUp"",""event"":""keyup"",""t"":51652},{""key"":""ArrowUp"",""event"":""keydown"",""t"":51817},{""key"":""ArrowUp"",""event"":""keyup"",""t"":52196},{""key"":""ArrowUp"",""event"":""keydown"",""t"":52245},{""key"":""ArrowUp"",""event"":""keyup"",""t"":52370},{""key"":""ArrowLeft"",""event"":""keydown"",""t"":52578},{""key"":""ArrowLeft"",""event"":""keyup"",""t"":52808},{""key"":""ArrowLeft"",""event"":""keydown"",""t"":53034},{""key"":""ArrowLeft"",""event"":""keyup"",""t"":53307},{""key"":""ArrowDown"",""event"":""keydown"",""t"":53441},{""key"":""ArrowDown"",""event"":""keydown"",""t"":53930},{""key"":""ArrowDown"",""event"":""keydown"",""t"":53961},{""key"":""ArrowDown"",""event"":""keydown"",""t"":53989},{""key"":""ArrowDown"",""event"":""keydown"",""t"":54018},{""key"":""ArrowDown"",""event"":""keydown"",""t"":54048},{""key"":""ArrowDown"",""event"":""keydown"",""t"":54078},{""key"":""ArrowDown"",""event"":""keydown"",""t"":54108},{""key"":""ArrowDown"",""event"":""keydown"",""t"":54137},{""key"":""ArrowDown"",""event"":""keydown"",""t"":54166},{""key"":""ArrowDown"",""event"":""keydown"",""t"":54196},{""key"":""ArrowDown"",""event"":""keydown"",""t"":54228},{""key"":""ArrowDown"",""event"":""keydown"",""t"":54255},{""key"":""ArrowDown"",""event"":""keydown"",""t"":54285},{""key"":""ArrowDown"",""event"":""keydown"",""t"":54314},{""key"":""ArrowDown"",""event"":""keydown"",""t"":54344},{""key"":""ArrowDown"",""event"":""keydown"",""t"":54374},{""key"":""ArrowDown"",""event"":""keydown"",""t"":54403},{""key"":""ArrowDown"",""event"":""keydown"",""t"":54433},{""key"":""ArrowDown"",""event"":""keyup"",""t"":54477},{""key"":""ArrowLeft"",""event"":""keydown"",""t"":54521},{""key"":""ArrowLeft"",""event"":""keyup"",""t"":54682},{""key"":""ArrowDown"",""event"":""keydown"",""t"":54722},{""key"":""ArrowDown"",""event"":""keyup"",""t"":55231},{""key"":""ArrowRight"",""event"":""keydown"",""t"":55361},{""key"":""ArrowRight"",""event"":""keyup"",""t"":55474},{""key"":""ArrowDown"",""event"":""keydown"",""t"":55591},{""key"":""ArrowDown"",""event"":""keyup"",""t"":55902},{""key"":""ArrowLeft"",""event"":""keydown"",""t"":56074},{""key"":""ArrowLeft"",""event"":""keyup"",""t"":56198},{""key"":""ArrowDown"",""event"":""keydown"",""t"":56394},{""key"":""ArrowRight"",""event"":""keydown"",""t"":56582},{""key"":""ArrowDown"",""event"":""keyup"",""t"":56589},{""key"":""ArrowRight"",""event"":""keyup"",""t"":56629},{""key"":""ArrowRight"",""event"":""keydown"",""t"":56830},{""key"":""ArrowRight"",""event"":""keyup"",""t"":57027},{""key"":""ArrowDown"",""event"":""keydown"",""t"":57080},{""key"":""ArrowDown"",""event"":""keyup"",""t"":57172},{""key"":""ArrowRight"",""event"":""keydown"",""t"":57302},{""key"":""ArrowRight"",""event"":""keyup"",""t"":57499},{""key"":""ArrowDown"",""event"":""keydown"",""t"":57880},{""key"":""ArrowLeft"",""event"":""keydown"",""t"":58173},{""key"":""ArrowLeft"",""event"":""keyup"",""t"":58288},{""key"":""ArrowLeft"",""event"":""keydown"",""t"":58420},{""key"":""ArrowLeft"",""event"":""keyup"",""t"":58546},{""key"":""ArrowLeft"",""event"":""keydown"",""t"":58633},{""key"":""ArrowLeft"",""event"":""keyup"",""t"":58746},{""key"":""ArrowLeft"",""event"":""keydown"",""t"":58862},{""key"":""ArrowLeft"",""event"":""keyup"",""t"":58960},{""key"":""ArrowDown"",""event"":""keyup"",""t"":60101},{""key"":""ArrowLeft"",""event"":""keydown"",""t"":60209},{""key"":""ArrowLeft"",""event"":""keydown"",""t"":60696},{""key"":""ArrowLeft"",""event"":""keydown"",""t"":60726},{""key"":""ArrowLeft"",""event"":""keydown"",""t"":60755},{""key"":""ArrowLeft"",""event"":""keydown"",""t"":60784},{""key"":""ArrowLeft"",""event"":""keydown"",""t"":60814},{""key"":""ArrowLeft"",""event"":""keydown"",""t"":60844},{""key"":""ArrowLeft"",""event"":""keydown"",""t"":60875},{""key"":""ArrowLeft"",""event"":""keydown"",""t"":60903},{""key"":""ArrowLeft"",""event"":""keydown"",""t"":60933},{""key"":""ArrowLeft"",""event"":""keydown"",""t"":60963},{""key"":""ArrowLeft"",""event"":""keydown"",""t"":60994},{""key"":""ArrowLeft"",""event"":""keydown"",""t"":61022},{""key"":""ArrowLeft"",""event"":""keydown"",""t"":61051},{""key"":""ArrowLeft"",""event"":""keydown"",""t"":61081},{""key"":""ArrowLeft"",""event"":""keydown"",""t"":61110},{""key"":""ArrowLeft"",""event"":""keydown"",""t"":61142},{""key"":""ArrowLeft"",""event"":""keydown"",""t"":61170},{""key"":""ArrowLeft"",""event"":""keydown"",""t"":61199},{""key"":""ArrowLeft"",""event"":""keydown"",""t"":61229},{""key"":""ArrowLeft"",""event"":""keydown"",""t"":61260},{""key"":""ArrowLeft"",""event"":""keydown"",""t"":61289},{""key"":""ArrowLeft"",""event"":""keydown"",""t"":61318},{""key"":""ArrowLeft"",""event"":""keydown"",""t"":61347},{""key"":""ArrowLeft"",""event"":""keydown"",""t"":61377},{""key"":""ArrowLeft"",""event"":""keydown"",""t"":61410},{""key"":""ArrowLeft"",""event"":""keydown"",""t"":61437},{""key"":""ArrowLeft"",""event"":""keydown"",""t"":61466},{""key"":""ArrowLeft"",""event"":""keydown"",""t"":61495},{""key"":""ArrowLeft"",""event"":""keydown"",""t"":61526},{""key"":""ArrowLeft"",""event"":""keydown"",""t"":61556},{""key"":""ArrowLeft"",""event"":""keydown"",""t"":61585},{""key"":""ArrowLeft"",""event"":""keydown"",""t"":61615},{""key"":""ArrowLeft"",""event"":""keydown"",""t"":61653},{""key"":""ArrowLeft"",""event"":""keydown"",""t"":61683},{""key"":""ArrowLeft"",""event"":""keydown"",""t"":61713},{""key"":""ArrowLeft"",""event"":""keydown"",""t"":61744},{""key"":""ArrowLeft"",""event"":""keydown"",""t"":61772},{""key"":""ArrowLeft"",""event"":""keydown"",""t"":61802},{""key"":""ArrowLeft"",""event"":""keydown"",""t"":61831},{""key"":""ArrowLeft"",""event"":""keydown"",""t"":61861},{""key"":""ArrowLeft"",""event"":""keydown"",""t"":61892},{""key"":""ArrowLeft"",""event"":""keydown"",""t"":61920},{""key"":""ArrowLeft"",""event"":""keydown"",""t"":61950},{""key"":""ArrowLeft"",""event"":""keydown"",""t"":61979},{""key"":""ArrowLeft"",""event"":""keydown"",""t"":62009},{""key"":""ArrowLeft"",""event"":""keydown"",""t"":62039},{""key"":""ArrowLeft"",""event"":""keydown"",""t"":62068},{""key"":""ArrowLeft"",""event"":""keydown"",""t"":62098},{""key"":""ArrowLeft"",""event"":""keydown"",""t"":62127},{""key"":""ArrowLeft"",""event"":""keydown"",""t"":62159},{""key"":""ArrowLeft"",""event"":""keydown"",""t"":62187},{""key"":""ArrowLeft"",""event"":""keydown"",""t"":62216},{""key"":""ArrowLeft"",""event"":""keydown"",""t"":62246},{""key"":""ArrowLeft"",""event"":""keydown"",""t"":62276},{""key"":""ArrowLeft"",""event"":""keydown"",""t"":62306},{""key"":""ArrowLeft"",""event"":""keydown"",""t"":62335},{""key"":""ArrowLeft"",""event"":""keydown"",""t"":62364},{""key"":""ArrowLeft"",""event"":""keydown"",""t"":62395},{""key"":""ArrowLeft"",""event"":""keydown"",""t"":62425},{""key"":""ArrowLeft"",""event"":""keydown"",""t"":62455},{""key"":""ArrowLeft"",""event"":""keydown"",""t"":62483},{""key"":""ArrowLeft"",""event"":""keydown"",""t"":62512},{""key"":""ArrowLeft"",""event"":""keydown"",""t"":62542},{""key"":""ArrowLeft"",""event"":""keydown"",""t"":62572},{""key"":""ArrowLeft"",""event"":""keydown"",""t"":62602},{""key"":""ArrowLeft"",""event"":""keydown"",""t"":62633},{""key"":""ArrowLeft"",""event"":""keydown"",""t"":62662},{""key"":""ArrowLeft"",""event"":""keydown"",""t"":62693},{""key"":""ArrowLeft"",""event"":""keydown"",""t"":62723},{""key"":""ArrowLeft"",""event"":""keydown"",""t"":62753},{""key"":""ArrowLeft"",""event"":""keydown"",""t"":62782},{""key"":""ArrowLeft"",""event"":""keydown"",""t"":62811},{""key"":""ArrowLeft"",""event"":""keydown"",""t"":62842},{""key"":""ArrowLeft"",""event"":""keydown"",""t"":62871},{""key"":""ArrowLeft"",""event"":""keydown"",""t"":62900},{""key"":""ArrowLeft"",""event"":""keydown"",""t"":62930},{""key"":""ArrowLeft"",""event"":""keydown"",""t"":62960},{""key"":""ArrowLeft"",""event"":""keydown"",""t"":62992},{""key"":""ArrowLeft"",""event"":""keydown"",""t"":63019},{""key"":""ArrowLeft"",""event"":""keydown"",""t"":63048},{""key"":""ArrowLeft"",""event"":""keydown"",""t"":63078},{""key"":""ArrowLeft"",""event"":""keydown"",""t"":63109},{""key"":""ArrowLeft"",""event"":""keydown"",""t"":63138},{""key"":""ArrowLeft"",""event"":""keydown"",""t"":63167},{""key"":""ArrowLeft"",""event"":""keydown"",""t"":63197},{""key"":""ArrowLeft"",""event"":""keydown"",""t"":63226},{""key"":""ArrowLeft"",""event"":""keydown"",""t"":63258},{""key"":""ArrowLeft"",""event"":""keydown"",""t"":63286},{""key"":""ArrowLeft"",""event"":""keydown"",""t"":63315},{""key"":""ArrowLeft"",""event"":""keydown"",""t"":63345},{""key"":""ArrowLeft"",""event"":""keydown"",""t"":63376},{""key"":""ArrowLeft"",""event"":""keydown"",""t"":63404},{""key"":""ArrowLeft"",""event"":""keydown"",""t"":63434},{""key"":""ArrowLeft"",""event"":""keydown"",""t"":63463},{""key"":""ArrowLeft"",""event"":""keydown"",""t"":63493},{""key"":""ArrowLeft"",""event"":""keydown"",""t"":63525},{""key"":""ArrowLeft"",""event"":""keydown"",""t"":63552},{""key"":""ArrowLeft"",""event"":""keydown"",""t"":63582},{""key"":""ArrowLeft"",""event"":""keydown"",""t"":63612},{""key"":""ArrowLeft"",""event"":""keydown"",""t"":63642},{""key"":""ArrowLeft"",""event"":""keydown"",""t"":63672},{""key"":""ArrowLeft"",""event"":""keydown"",""t"":63701},{""key"":""ArrowLeft"",""event"":""keydown"",""t"":63731},{""key"":""ArrowLeft"",""event"":""keydown"",""t"":63761},{""key"":""ArrowLeft"",""event"":""keydown"",""t"":63792},{""key"":""ArrowLeft"",""event"":""keydown"",""t"":63820},{""key"":""ArrowLeft"",""event"":""keydown"",""t"":63849},{""key"":""ArrowLeft"",""event"":""keydown"",""t"":63879},{""key"":""ArrowLeft"",""event"":""keydown"",""t"":63909},{""key"":""ArrowLeft"",""event"":""keydown"",""t"":63938},{""key"":""ArrowLeft"",""event"":""keydown"",""t"":63968},{""key"":""ArrowLeft"",""event"":""keydown"",""t"":63998},{""key"":""ArrowLeft"",""event"":""keydown"",""t"":64027},{""key"":""ArrowLeft"",""event"":""keydown"",""t"":64059},{""key"":""ArrowLeft"",""event"":""keydown"",""t"":64087},{""key"":""ArrowLeft"",""event"":""keydown"",""t"":64116},{""key"":""ArrowLeft"",""event"":""keydown"",""t"":64145},{""key"":""ArrowLeft"",""event"":""keydown"",""t"":64177},{""key"":""ArrowLeft"",""event"":""keydown"",""t"":64205},{""key"":""ArrowLeft"",""event"":""keydown"",""t"":64235},{""key"":""ArrowLeft"",""event"":""keydown"",""t"":64264},{""key"":""ArrowLeft"",""event"":""keydown"",""t"":64294},{""key"":""ArrowLeft"",""event"":""keydown"",""t"":64326},{""key"":""ArrowLeft"",""event"":""keydown"",""t"":64354},{""key"":""ArrowLeft"",""event"":""keydown"",""t"":64383},{""key"":""ArrowLeft"",""event"":""keydown"",""t"":64412},{""key"":""ArrowLeft"",""event"":""keydown"",""t"":64442},{""key"":""ArrowLeft"",""event"":""keydown"",""t"":64472},{""key"":""ArrowLeft"",""event"":""keydown"",""t"":64501},{""key"":""ArrowLeft"",""event"":""keydown"",""t"":64531},{""key"":""ArrowLeft"",""event"":""keydown"",""t"":64560},{""key"":""ArrowLeft"",""event"":""keydown"",""t"":64591},{""key"":""ArrowLeft"",""event"":""keydown"",""t"":64620},{""key"":""ArrowLeft"",""event"":""keydown"",""t"":64650},{""key"":""ArrowLeft"",""event"":""keydown"",""t"":64679},{""key"":""ArrowLeft"",""event"":""keydown"",""t"":64709},{""key"":""ArrowLeft"",""event"":""keydown"",""t"":64739},{""key"":""ArrowLeft"",""event"":""keydown"",""t"":64768},{""key"":""ArrowLeft"",""event"":""keydown"",""t"":64798},{""key"":""ArrowLeft"",""event"":""keydown"",""t"":64827},{""key"":""ArrowLeft"",""event"":""keydown"",""t"":64859},{""key"":""ArrowLeft"",""event"":""keydown"",""t"":64887},{""key"":""ArrowLeft"",""event"":""keydown"",""t"":64916},{""key"":""ArrowLeft"",""event"":""keydown"",""t"":64946},{""key"":""ArrowLeft"",""event"":""keydown"",""t"":64976},{""key"":""ArrowLeft"",""event"":""keydown"",""t"":65006},{""key"":""ArrowLeft"",""event"":""keydown"",""t"":65035},{""key"":""ArrowLeft"",""event"":""keydown"",""t"":65064},{""key"":""ArrowLeft"",""event"":""keydown"",""t"":65094},{""key"":""ArrowLeft"",""event"":""keydown"",""t"":65127},{""key"":""ArrowLeft"",""event"":""keydown"",""t"":65154},{""key"":""ArrowLeft"",""event"":""keydown"",""t"":65183},{""key"":""ArrowLeft"",""event"":""keydown"",""t"":65212},{""key"":""ArrowLeft"",""event"":""keydown"",""t"":65242},{""key"":""ArrowLeft"",""event"":""keydown"",""t"":65272},{""key"":""ArrowLeft"",""event"":""keydown"",""t"":65302},{""key"":""ArrowLeft"",""event"":""keydown"",""t"":65331},{""key"":""ArrowLeft"",""event"":""keydown"",""t"":65361},{""key"":""ArrowLeft"",""event"":""keydown"",""t"":65392},{""key"":""ArrowLeft"",""event"":""keydown"",""t"":65420},{""key"":""ArrowLeft"",""event"":""keydown"",""t"":65450},{""key"":""ArrowLeft"",""event"":""keydown"",""t"":65480},{""key"":""ArrowLeft"",""event"":""keydown"",""t"":65512},{""key"":""ArrowLeft"",""event"":""keydown"",""t"":65539},{""key"":""ArrowLeft"",""event"":""keydown"",""t"":65569},{""key"":""ArrowLeft"",""event"":""keydown"",""t"":65598},{""key"":""ArrowLeft"",""event"":""keydown"",""t"":65629},{""key"":""ArrowLeft"",""event"":""keydown"",""t"":65659},{""key"":""ArrowLeft"",""event"":""keydown"",""t"":65688},{""key"":""ArrowLeft"",""event"":""keyup"",""t"":65728},{""key"":""ArrowUp"",""event"":""keydown"",""t"":65817},{""key"":""ArrowUp"",""event"":""keydown"",""t"":66308},{""key"":""ArrowUp"",""event"":""keydown"",""t"":66336},{""key"":""ArrowUp"",""event"":""keydown"",""t"":66366},{""key"":""ArrowUp"",""event"":""keydown"",""t"":66395},{""key"":""ArrowUp"",""event"":""keydown"",""t"":66425},{""key"":""ArrowUp"",""event"":""keydown"",""t"":66455},{""key"":""ArrowUp"",""event"":""keydown"",""t"":66484},{""key"":""ArrowUp"",""event"":""keydown"",""t"":66514},{""key"":""ArrowUp"",""event"":""keydown"",""t"":66546},{""key"":""ArrowUp"",""event"":""keydown"",""t"":66575},{""key"":""ArrowUp"",""event"":""keydown"",""t"":66605},{""key"":""ArrowUp"",""event"":""keydown"",""t"":66636},{""key"":""ArrowUp"",""event"":""keydown"",""t"":66666},{""key"":""ArrowLeft"",""event"":""keydown"",""t"":66669},{""key"":""ArrowLeft"",""event"":""keydown"",""t"":67158},{""key"":""ArrowLeft"",""event"":""keydown"",""t"":67187},{""key"":""ArrowLeft"",""event"":""keydown"",""t"":67216},{""key"":""ArrowLeft"",""event"":""keydown"",""t"":67245},{""key"":""ArrowLeft"",""event"":""keydown"",""t"":67275},{""key"":""ArrowLeft"",""event"":""keydown"",""t"":67305},{""key"":""ArrowLeft"",""event"":""keydown"",""t"":67335},{""key"":""ArrowUp"",""event"":""keyup"",""t"":67364},{""key"":""ArrowLeft"",""event"":""keydown"",""t"":67392},{""key"":""ArrowLeft"",""event"":""keydown"",""t"":67420},{""key"":""ArrowLeft"",""event"":""keydown"",""t"":67450},{""key"":""ArrowUp"",""event"":""keydown"",""t"":67454},{""key"":""ArrowUp"",""event"":""keyup"",""t"":67575},{""key"":""ArrowUp"",""event"":""keydown"",""t"":67630},{""key"":""ArrowUp"",""event"":""keyup"",""t"":67742},{""key"":""ArrowUp"",""event"":""keydown"",""t"":67811},{""key"":""ArrowLeft"",""event"":""keyup"",""t"":67929},{""key"":""ArrowLeft"",""event"":""keydown"",""t"":68317},{""key"":""ArrowUp"",""event"":""keyup"",""t"":68330},{""key"":""ArrowLeft"",""event"":""keydown"",""t"":68818},{""key"":""ArrowLeft"",""event"":""keydown"",""t"":68847},{""key"":""ArrowLeft"",""event"":""keydown"",""t"":68877},{""key"":""ArrowLeft"",""event"":""keydown"",""t"":68907},{""key"":""ArrowLeft"",""event"":""keydown"",""t"":68936},{""key"":""ArrowLeft"",""event"":""keydown"",""t"":68966},{""key"":""ArrowLeft"",""event"":""keydown"",""t"":68996},{""key"":""ArrowLeft"",""event"":""keydown"",""t"":69025},{""key"":""ArrowLeft"",""event"":""keydown"",""t"":69057},{""key"":""ArrowLeft"",""event"":""keydown"",""t"":69085},{""key"":""ArrowLeft"",""event"":""keydown"",""t"":69114},{""key"":""ArrowLeft"",""event"":""keydown"",""t"":69144},{""key"":""ArrowLeft"",""event"":""keydown"",""t"":69175},{""key"":""ArrowLeft"",""event"":""keydown"",""t"":69203},{""key"":""ArrowLeft"",""event"":""keydown"",""t"":69233},{""key"":""ArrowLeft"",""event"":""keydown"",""t"":69262},{""key"":""ArrowLeft"",""event"":""keydown"",""t"":69292},{""key"":""ArrowLeft"",""event"":""keydown"",""t"":69325},{""key"":""ArrowLeft"",""event"":""keydown"",""t"":69351},{""key"":""ArrowLeft"",""event"":""keydown"",""t"":69380},{""key"":""ArrowLeft"",""event"":""keydown"",""t"":69410},{""key"":""ArrowLeft"",""event"":""keydown"",""t"":69441},{""key"":""ArrowLeft"",""event"":""keydown"",""t"":69469},{""key"":""ArrowUp"",""event"":""keydown"",""t"":69495},{""key"":""ArrowLeft"",""event"":""keyup"",""t"":69508},{""key"":""ArrowUp"",""event"":""keydown"",""t"":69994},{""key"":""ArrowUp"",""event"":""keydown"",""t"":70024},{""key"":""ArrowUp"",""event"":""keyup"",""t"":70070},{""key"":""ArrowRight"",""event"":""keydown"",""t"":70070}]","[]"
"464249","","{""creativity-rating"":4,""creativity-free-response"":""i like it, it had a dark map and a flaring light on the moving object so that you can see the way to move, you had to start off your brain and try to remember the way back too, i like games like this, its creative but the concept is already seen before so it not that creative, its slightly creative i like it."",""originality-rating"":3,""originality-free-response"":""i have played many maze games and puzzle games that need some thinking and memory, i like this one, you had to look for obstacles and try to avoid them to reach the goal while trying to remember the way back, the flaring flashing light that shows you the way felt original, the maze is kind of unoriginal but still very amusing i like it, and yes some parts caused a sense of surprise, when trying to move and avoid obstacles, sometimes you can run into invisible walls and that surprised me, i dont know if that is on purpose but i like it too"",""effectiveness-rating"":4,""effectiveness-free-response"":""i loved the invisible walls, i loved the idea of a flashing light that shows you only part of the way, and the way that you had to remember the way back, i am sure i would enjoy this game if it had more levels with different difficulties"",""authenticity-rating"":3,""attention-check"":3,""intentionality-rating"":4,""authenticity-intentionality-free-response"":""the developer may have based this game on some existing ideas, but it does not seem like a rip off, i like that the developer thought of not showing the whole way, and if the developer meant including invisible obstacles then i like their personal effort, if not then when you think about it, it could be a lack of effort in developing ""}","evaluation-chat-1-echo","survey","8","1588623","0.0-8.0","6980e32bc22bae8cb57154ed","6987c292780adf01bb926159","69a4db00031db13ee84260bc","","","","","","",""
"50696","","{""concept-creativity-rating"":5,""concept-implementation-rating"":1,""question1"":null}","concept-chat-1-echo","survey","9","1639335","0.0-9.0","6980e32bc22bae8cb57154ed","6987c292780adf01bb926159","69a4db00031db13ee84260bc","","","","","","",""
"1461","You have completed your evaluation of the second video game.<br><br>Press any key to proceed to the final game."," ","pre-game-three-message","html-keyboard-response","10","1640797","0.0-10.0","6980e32bc22bae8cb57154ed","6987c292780adf01bb926159","69a4db00031db13ee84260bc","","","","","","",""
"35120","","","game-gemini-2-patch","plugin-game-iframe","11","1675925","0.0-11.0","6980e32bc22bae8cb57154ed","6987c292780adf01bb926159","69a4db00031db13ee84260bc","game-complete","ended","{""stage"":""ended"",""detail"":{""patchCount"":0,""frustration"":100,""gameTimeRemaining"":277,""gameEnded"":true}}","{""result"":""win"",""frustration"":100,""patchCount"":0}","null","[{""key"":"" "",""event"":""keyup"",""t"":94},{""key"":""ArrowLeft"",""event"":""keydown"",""t"":3883},{""key"":""ArrowLeft"",""event"":""keyup"",""t"":4064},{""key"":""ArrowUp"",""event"":""keydown"",""t"":6154},{""key"":""ArrowUp"",""event"":""keyup"",""t"":6329},{""key"":""ArrowRight"",""event"":""keydown"",""t"":6484},{""key"":""ArrowRight"",""event"":""keyup"",""t"":6667},{""key"":""ArrowLeft"",""event"":""keydown"",""t"":6888},{""key"":""ArrowLeft"",""event"":""keyup"",""t"":7012},{""key"":""Enter"",""event"":""keydown"",""t"":35117}]","[]"
"188925","","{""creativity-rating"":1,""creativity-free-response"":""i actually dont understand what i just played, i did my best to try to click on the blocks or move them but nothing worked, its kind of frustrating "",""originality-rating"":1,""originality-free-response"":""at first i thought that there are no instructions, but then i saw a small white text at the bottom saying i should fill the frustrations or something and i didnt get it."",""effectiveness-rating"":1,""effectiveness-free-response"":""not enjoyable and very frustrating, no clear instructions and started immediately, i didnt even know what should i do i didnt even play "",""authenticity-rating"":1,""attention-check"":3,""intentionality-rating"":1,""authenticity-intentionality-free-response"":""i think the developer didnt even try on this one, i dont like it, no instructions, no fun and no clear goal""}","evaluation-gemini-2-patch","survey","12","1864875","0.0-12.0","6980e32bc22bae8cb57154ed","6987c292780adf01bb926159","69a4db00031db13ee84260bc","","","","","","",""
"30010","","{""concept-creativity-rating"":1,""concept-implementation-rating"":1,""question1"":null}","concept-gemini-2-patch","survey","13","1894904","0.0-13.0","6980e32bc22bae8cb57154ed","6987c292780adf01bb926159","69a4db00031db13ee84260bc","","","","","","",""
"3031","You have completed all of the games!<br><br>Press any key to proceed to some final questions before returning to Prolific."," ","pre-baseline-questions","html-keyboard-response","14","1897936","0.0-14.0","6980e32bc22bae8cb57154ed","6987c292780adf01bb926159","69a4db00031db13ee84260bc","","","","","","",""
"30795","","{""baseline_originality_rating"":4,""baseline_effectiveness_rating"":5,""baseline_authenticity_rating"":5,""baseline_intentionality_rating"":4}","baseline-questions-rating","survey","15","1928747","0.0-15.0","6980e32bc22bae8cb57154ed","6987c292780adf01bb926159","69a4db00031db13ee84260bc","","","","","","",""
"85003","","{""ai_aware_question"":""Yes, because if the prompt you give to an AI agent to generate anything, isnt detailed enough, they might add some unnecessary things on their own, or even miss some necessary things that you want to add, i dont mind using AI to create things as long as you can write a good prompt and create a good result""}","ai-aware-question","survey","16","2013759","0.0-16.0","6980e32bc22bae8cb57154ed","6987c292780adf01bb926159","69a4db00031db13ee84260bc","","","","","","",""
"7375","
        <p> You have completed the experiment! Press any key to save your data and get redirected back to Prolific. <strong>Please do not close the page until you have been redirected to Prolific.</strong> <p>
      "," ","goodbye","html-keyboard-response","17","2021135","0.0-17.0","6980e32bc22bae8cb57154ed","6987c292780adf01bb926159","69a4db00031db13ee84260bc","","","","","","",""
