"rt","stimulus","response","phase","trial_type","trial_index","time_elapsed","internal_node_id","prolific_subject_id","study_id","session_id","exit_reason","exit_stage","exit_progress","game_data","emergency_text","keystrokes","mouse_events"
"9619","Welcome!<br><br>In this study, you will play three short video games that were generated by Artificial Intelligence (AI) and complete a short survey after each game.<br><br>Please make sure you are in a quiet environment where you can focus for the duration of the study. Some games may use sound, so please ensure that your device's volume is not muted.<br><br>Press any key to begin."," ","welcome-message","html-keyboard-response","0","9629","0.0-0.0","66d0944b9f8f566817ad708c","6987c292780adf01bb926159","69a4faec09ccd76ef89ffd18","","","","","","",""
"17477","","{""commitment-check"":[""yes""]}","commitment-check","survey","1","27136","0.0-1.0","66d0944b9f8f566817ad708c","6987c292780adf01bb926159","69a4faec09ccd76ef89ffd18","","","","","","",""
"6412","Press any key to proceed to the first video game. Should you encounter a game-breaking bug, please report the issue in the Menu tab to the right of the screen."," ","pre-game-one-message","html-keyboard-response","2","33548","0.0-2.0","66d0944b9f8f566817ad708c","6987c292780adf01bb926159","69a4faec09ccd76ef89ffd18","","","","","","",""
"46269","","","game-gemini-2-patch","plugin-game-iframe","3","79839","0.0-3.0","66d0944b9f8f566817ad708c","6987c292780adf01bb926159","69a4faec09ccd76ef89ffd18","game-complete","ended","{""stage"":""ended"",""detail"":{""patchCount"":0,""frustration"":100,""gameTimeRemaining"":277,""gameEnded"":true}}","{""result"":""win"",""frustration"":100,""patchCount"":0}","null","[{""key"":"" "",""event"":""keyup"",""t"":304},{""key"":"" "",""event"":""keydown"",""t"":5030},{""key"":"" "",""event"":""keyup"",""t"":5236},{""key"":"" "",""event"":""keydown"",""t"":24562},{""key"":"" "",""event"":""keyup"",""t"":24855},{""key"":"" "",""event"":""keydown"",""t"":25080},{""key"":"" "",""event"":""keyup"",""t"":25294},{""key"":""Enter"",""event"":""keydown"",""t"":46267}]","[]"
"207154","","{""creativity-rating"":3,""creativity-free-response"":""It was pretty basic and nothing more creative about it "",""originality-rating"":4,""originality-free-response"":""It kinda reminds me of the building blocks game I used to play as a child\n"",""effectiveness-rating"":2,""effectiveness-free-response"":""I feel like if I had enough time to understand the game I would have enjoyed it better"",""authenticity-rating"":3,""attention-check"":3,""intentionality-rating"":2,""authenticity-intentionality-free-response"":""Authenticity like I said it if I had more time to read about the rules of the game i would have felt different, the intentionality also was fair, effort on the game feels like the programmer just started coding and this was their first coding project""}","evaluation-gemini-2-patch","survey","4","287021","0.0-4.0","66d0944b9f8f566817ad708c","6987c292780adf01bb926159","69a4faec09ccd76ef89ffd18","","","","","","",""
"61955","","{""concept-creativity-rating"":3,""concept-implementation-rating"":2,""question1"":null}","concept-gemini-2-patch","survey","5","348991","0.0-5.0","66d0944b9f8f566817ad708c","6987c292780adf01bb926159","69a4faec09ccd76ef89ffd18","","","","","","",""
"2529","You have completed your evaluation of the first video game.<br><br>Press any key to proceed to the second game."," ","pre-game-two-message","html-keyboard-response","6","351521","0.0-6.0","66d0944b9f8f566817ad708c","6987c292780adf01bb926159","69a4faec09ccd76ef89ffd18","","","","","","",""
"109015","","","game-gemini-6-redact","plugin-game-iframe","7","460547","0.0-7.0","66d0944b9f8f566817ad708c","6987c292780adf01bb926159","69a4faec09ccd76ef89ffd18","game-complete","static","{""stage"":""static"",""detail"":{""playerSpeed"":50,""mobilityUnlocked"":false,""fragileWallAlive"":false,""playerX"":732.6666666666749,""playerY"":536.333333333333}}","{""result"":""win""}","null","[{""key"":"" "",""event"":""keyup"",""t"":234},{""key"":"" "",""event"":""keydown"",""t"":29730},{""key"":"" "",""event"":""keyup"",""t"":30091},{""key"":"" "",""event"":""keydown"",""t"":30457},{""key"":"" "",""event"":""keydown"",""t"":30959},{""key"":"" "",""event"":""keydown"",""t"":30991},{""key"":"" "",""event"":""keydown"",""t"":31025},{""key"":"" "",""event"":""keyup"",""t"":31044},{""key"":"" "",""event"":""keydown"",""t"":31542},{""key"":"" "",""event"":""keyup"",""t"":32014},{""key"":"" "",""event"":""keydown"",""t"":32638},{""key"":"" "",""event"":""keyup"",""t"":32941},{""key"":"" "",""event"":""keydown"",""t"":33620},{""key"":"" "",""event"":""keyup"",""t"":34041},{""key"":""ArrowRight"",""event"":""keydown"",""t"":34636},{""key"":""ArrowRight"",""event"":""keyup"",""t"":34919},{""key"":""0"",""event"":""keydown"",""t"":35123},{""key"":""ArrowRight"",""event"":""keydown"",""t"":35151},{""key"":""ArrowRight"",""event"":""keyup"",""t"":35222},{""key"":""0"",""event"":""keyup"",""t"":35326},{""key"":"" "",""event"":""keydown"",""t"":36772},{""key"":"" "",""event"":""keyup"",""t"":36873},{""key"":"" "",""event"":""keydown"",""t"":36942},{""key"":"" "",""event"":""keyup"",""t"":37034},{""key"":"" "",""event"":""keydown"",""t"":37255},{""key"":"" "",""event"":""keyup"",""t"":37362},{""key"":"" "",""event"":""keydown"",""t"":37433},{""key"":"" "",""event"":""keyup"",""t"":37529},{""key"":"" "",""event"":""keydown"",""t"":37601},{""key"":"" "",""event"":""keyup"",""t"":38035},{""key"":"" "",""event"":""keydown"",""t"":38078},{""key"":"" "",""event"":""keyup"",""t"":38200},{""key"":"" "",""event"":""keydown"",""t"":38232},{""key"":"" "",""event"":""keyup"",""t"":38479},{""key"":"" "",""event"":""keydown"",""t"":38566},{""key"":"" "",""event"":""keyup"",""t"":38676},{""key"":"" "",""event"":""keydown"",""t"":38760},{""key"":"" "",""event"":""keyup"",""t"":38856},{""key"":"" "",""event"":""keydown"",""t"":38938},{""key"":"" "",""event"":""keyup"",""t"":39039},{""key"":"" "",""event"":""keydown"",""t"":39141},{""key"":"" "",""event"":""keyup"",""t"":39237},{""key"":"" "",""event"":""keydown"",""t"":39331},{""key"":"" "",""event"":""keyup"",""t"":39415},{""key"":"" "",""event"":""keydown"",""t"":39492},{""key"":"" "",""event"":""keyup"",""t"":39588},{""key"":"" "",""event"":""keydown"",""t"":39654},{""key"":"" "",""event"":""keyup"",""t"":39782},{""key"":"" "",""event"":""keydown"",""t"":39901},{""key"":"" "",""event"":""keyup"",""t"":40009},{""key"":"" "",""event"":""keydown"",""t"":40108},{""key"":""ArrowUp"",""event"":""keydown"",""t"":40228},{""key"":"" "",""event"":""keyup"",""t"":40253},{""key"":""ArrowUp"",""event"":""keyup"",""t"":40397},{""key"":"" "",""event"":""keydown"",""t"":40403},{""key"":""ArrowUp"",""event"":""keydown"",""t"":40421},{""key"":"" "",""event"":""keyup"",""t"":40463},{""key"":"" "",""event"":""keydown"",""t"":40553},{""key"":"" "",""event"":""keyup"",""t"":40661},{""key"":"" "",""event"":""keydown"",""t"":40717},{""key"":""ArrowUp"",""event"":""keyup"",""t"":40897},{""key"":"" "",""event"":""keyup"",""t"":40903},{""key"":""ArrowUp"",""event"":""keydown"",""t"":40954},{""key"":"" "",""event"":""keydown"",""t"":41010},{""key"":""ArrowUp"",""event"":""keyup"",""t"":41081},{""key"":"" "",""event"":""keyup"",""t"":41122},{""key"":""ArrowUp"",""event"":""keydown"",""t"":41147},{""key"":""ArrowUp"",""event"":""keyup"",""t"":41254},{""key"":"" "",""event"":""keydown"",""t"":41263},{""key"":""ArrowUp"",""event"":""keydown"",""t"":41338},{""key"":"" "",""event"":""keyup"",""t"":41354},{""key"":""ArrowUp"",""event"":""keyup"",""t"":41435},{""key"":""ArrowUp"",""event"":""keydown"",""t"":41522},{""key"":""ArrowUp"",""event"":""keyup"",""t"":41603},{""key"":""ArrowUp"",""event"":""keydown"",""t"":41654},{""key"":""ArrowRight"",""event"":""keydown"",""t"":41914},{""key"":""ArrowLeft"",""event"":""keydown"",""t"":42273},{""key"":""ArrowRight"",""event"":""keyup"",""t"":42457},{""key"":"" "",""event"":""keydown"",""t"":42646},{""key"":"" "",""event"":""keyup"",""t"":42863},{""key"":""f"",""event"":""keydown"",""t"":43296},{""key"":""d"",""event"":""keydown"",""t"":43478},{""key"":""f"",""event"":""keyup"",""t"":43582},{""key"":""f"",""event"":""keydown"",""t"":43619},{""key"":""d"",""event"":""keyup"",""t"":43668},{""key"":""d"",""event"":""keydown"",""t"":43746},{""key"":""d"",""event"":""keyup"",""t"":43870},{""key"":""f"",""event"":""keyup"",""t"":44133},{""key"":""ArrowRight"",""event"":""keydown"",""t"":44646},{""key"":""ArrowUp"",""event"":""keyup"",""t"":44720},{""key"":""ArrowLeft"",""event"":""keyup"",""t"":44730},{""key"":""ArrowUp"",""event"":""keydown"",""t"":44800},{""key"":""ArrowUp"",""event"":""keydown"",""t"":45302},{""key"":""ArrowUp"",""event"":""keydown"",""t"":45332},{""key"":""ArrowUp"",""event"":""keydown"",""t"":45366},{""key"":""ArrowUp"",""event"":""keydown"",""t"":45400},{""key"":""ArrowUp"",""event"":""keydown"",""t"":45432},{""key"":""ArrowUp"",""event"":""keydown"",""t"":45461},{""key"":""ArrowUp"",""event"":""keydown"",""t"":45494},{""key"":""ArrowUp"",""event"":""keydown"",""t"":45528},{""key"":""ArrowUp"",""event"":""keydown"",""t"":45559},{""key"":""ArrowUp"",""event"":""keydown"",""t"":45593},{""key"":""ArrowUp"",""event"":""keydown"",""t"":45627},{""key"":""ArrowUp"",""event"":""keydown"",""t"":45657},{""key"":""ArrowUp"",""event"":""keydown"",""t"":45688},{""key"":""ArrowUp"",""event"":""keydown"",""t"":45720},{""key"":""ArrowUp"",""event"":""keydown"",""t"":45754},{""key"":""ArrowRight"",""event"":""keyup"",""t"":45767},{""key"":""ArrowUp"",""event"":""keydown"",""t"":45784},{""key"":""ArrowUp"",""event"":""keydown"",""t"":45817},{""key"":""ArrowUp"",""event"":""keydown"",""t"":45850},{""key"":""ArrowUp"",""event"":""keydown"",""t"":45883},{""key"":""ArrowUp"",""event"":""keydown"",""t"":45914},{""key"":""ArrowUp"",""event"":""keydown"",""t"":45948},{""key"":""g"",""event"":""keydown"",""t"":45949},{""key"":""r"",""event"":""keydown"",""t"":46120},{""key"":""g"",""event"":""keyup"",""t"":46159},{""key"":""f"",""event"":""keydown"",""t"":46259},{""key"":""r"",""event"":""keyup"",""t"":46279},{""key"":""r"",""event"":""keydown"",""t"":46517},{""key"":""ArrowUp"",""event"":""keyup"",""t"":46663},{""key"":""f"",""event"":""keyup"",""t"":46674},{""key"":""r"",""event"":""keyup"",""t"":46693},{""key"":""f"",""event"":""keydown"",""t"":47431},{""key"":""r"",""event"":""keydown"",""t"":47527},{""key"":""r"",""event"":""keyup"",""t"":47662},{""key"":""f"",""event"":""keyup"",""t"":47666},{""key"":""a"",""event"":""keydown"",""t"":47818},{""key"":""g"",""event"":""keydown"",""t"":47897},{""key"":""a"",""event"":""keyup"",""t"":47962},{""key"":""g"",""event"":""keyup"",""t"":48036},{""key"":""i"",""event"":""keydown"",""t"":48560},{""key"":""l"",""event"":""keydown"",""t"":48673},{""key"":""e"",""event"":""keydown"",""t"":48757},{""key"":""i"",""event"":""keyup"",""t"":48793},{""key"":""l"",""event"":""keyup"",""t"":48907},{""key"":"" "",""event"":""keydown"",""t"":48940},{""key"":""e"",""event"":""keyup"",""t"":48957},{""key"":"" "",""event"":""keyup"",""t"":49308},{""key"":"" "",""event"":""keydown"",""t"":49789},{""key"":"" "",""event"":""keyup"",""t"":49931},{""key"":"" "",""event"":""keydown"",""t"":49964},{""key"":"" "",""event"":""keydown"",""t"":50468},{""key"":"" "",""event"":""keydown"",""t"":50500},{""key"":"" "",""event"":""keydown"",""t"":50533},{""key"":"" "",""event"":""keydown"",""t"":50565},{""key"":"" "",""event"":""keydown"",""t"":50598},{""key"":"" "",""event"":""keydown"",""t"":50629},{""key"":"" "",""event"":""keydown"",""t"":50661},{""key"":"" "",""event"":""keydown"",""t"":50693},{""key"":"" "",""event"":""keydown"",""t"":50726},{""key"":"" "",""event"":""keydown"",""t"":50759},{""key"":"" "",""event"":""keydown"",""t"":50791},{""key"":"" "",""event"":""keydown"",""t"":50823},{""key"":"" "",""event"":""keydown"",""t"":50856},{""key"":"" "",""event"":""keydown"",""t"":50889},{""key"":"" "",""event"":""keydown"",""t"":50923},{""key"":"" "",""event"":""keyup"",""t"":50941},{""key"":"" "",""event"":""keydown"",""t"":50989},{""key"":"" "",""event"":""keyup"",""t"":51271},{""key"":"" "",""event"":""keydown"",""t"":51322},{""key"":"" "",""event"":""keyup"",""t"":51432},{""key"":"" "",""event"":""keydown"",""t"":51456},{""key"":"" "",""event"":""keyup"",""t"":51639},{""key"":"" "",""event"":""keydown"",""t"":51675},{""key"":"" "",""event"":""keyup"",""t"":51805},{""key"":"" "",""event"":""keydown"",""t"":51839},{""key"":"" "",""event"":""keyup"",""t"":52074},{""key"":"" "",""event"":""keydown"",""t"":52162},{""key"":"" "",""event"":""keyup"",""t"":52379},{""key"":"" "",""event"":""keydown"",""t"":52524},{""key"":"" "",""event"":""keyup"",""t"":52673},{""key"":"" "",""event"":""keydown"",""t"":52759},{""key"":"" "",""event"":""keyup"",""t"":52871},{""key"":"" "",""event"":""keydown"",""t"":52959},{""key"":"" "",""event"":""keyup"",""t"":53061},{""key"":"" "",""event"":""keydown"",""t"":53164},{""key"":"" "",""event"":""keyup"",""t"":53261},{""key"":"" "",""event"":""keydown"",""t"":53348},{""key"":"" "",""event"":""keyup"",""t"":53482},{""key"":"" "",""event"":""keydown"",""t"":53575},{""key"":"" "",""event"":""keyup"",""t"":53684},{""key"":"" "",""event"":""keydown"",""t"":53773},{""key"":"" "",""event"":""keyup"",""t"":53881},{""key"":"" "",""event"":""keydown"",""t"":53988},{""key"":"" "",""event"":""keyup"",""t"":54111},{""key"":"" "",""event"":""keydown"",""t"":54204},{""key"":"" "",""event"":""keyup"",""t"":54288},{""key"":"" "",""event"":""keydown"",""t"":60917},{""key"":"" "",""event"":""keydown"",""t"":61422},{""key"":"" "",""event"":""keydown"",""t"":61457},{""key"":"" "",""event"":""keydown"",""t"":61488},{""key"":"" "",""event"":""keydown"",""t"":61518},{""key"":"" "",""event"":""keydown"",""t"":61551},{""key"":"" "",""event"":""keydown"",""t"":61583},{""key"":"" "",""event"":""keydown"",""t"":61616},{""key"":"" "",""event"":""keydown"",""t"":61648},{""key"":"" "",""event"":""keydown"",""t"":61680},{""key"":"" "",""event"":""keyup"",""t"":61693},{""key"":"" "",""event"":""keydown"",""t"":62132},{""key"":"" "",""event"":""keyup"",""t"":62467},{""key"":"" "",""event"":""keydown"",""t"":63279},{""key"":"" "",""event"":""keydown"",""t"":63784},{""key"":"" "",""event"":""keydown"",""t"":63817},{""key"":"" "",""event"":""keydown"",""t"":63850},{""key"":"" "",""event"":""keydown"",""t"":63881},{""key"":"" "",""event"":""keydown"",""t"":63914},{""key"":"" "",""event"":""keydown"",""t"":63946},{""key"":"" "",""event"":""keydown"",""t"":63979},{""key"":"" "",""event"":""keydown"",""t"":64011},{""key"":"" "",""event"":""keydown"",""t"":64044},{""key"":"" "",""event"":""keydown"",""t"":64078},{""key"":"" "",""event"":""keydown"",""t"":64110},{""key"":"" "",""event"":""keydown"",""t"":64142},{""key"":"" "",""event"":""keydown"",""t"":64172},{""key"":"" "",""event"":""keydown"",""t"":64206},{""key"":"" "",""event"":""keydown"",""t"":64237},{""key"":"" "",""event"":""keydown"",""t"":64269},{""key"":"" "",""event"":""keydown"",""t"":64302},{""key"":"" "",""event"":""keydown"",""t"":64334},{""key"":"" "",""event"":""keydown"",""t"":64366},{""key"":"" "",""event"":""keydown"",""t"":64398},{""key"":"" "",""event"":""keydown"",""t"":64430},{""key"":"" "",""event"":""keydown"",""t"":64462},{""key"":"" "",""event"":""keydown"",""t"":64495},{""key"":"" "",""event"":""keydown"",""t"":64527},{""key"":"" "",""event"":""keydown"",""t"":64560},{""key"":"" "",""event"":""keydown"",""t"":64594},{""key"":"" "",""event"":""keydown"",""t"":64626},{""key"":"" "",""event"":""keydown"",""t"":64659},{""key"":"" "",""event"":""keydown"",""t"":64689},{""key"":"" "",""event"":""keydown"",""t"":64729},{""key"":"" "",""event"":""keydown"",""t"":64752},{""key"":"" "",""event"":""keydown"",""t"":64785},{""key"":"" "",""event"":""keydown"",""t"":64819},{""key"":"" "",""event"":""keydown"",""t"":64851},{""key"":"" "",""event"":""keydown"",""t"":64883},{""key"":"" "",""event"":""keydown"",""t"":64914},{""key"":"" "",""event"":""keydown"",""t"":64947},{""key"":"" "",""event"":""keydown"",""t"":64979},{""key"":"" "",""event"":""keydown"",""t"":65011},{""key"":"" "",""event"":""keydown"",""t"":65044},{""key"":"" "",""event"":""keydown"",""t"":65076},{""key"":"" "",""event"":""keydown"",""t"":65110},{""key"":"" "",""event"":""keydown"",""t"":65142},{""key"":"" "",""event"":""keydown"",""t"":65174},{""key"":"" "",""event"":""keydown"",""t"":65205},{""key"":"" "",""event"":""keydown"",""t"":65238},{""key"":"" "",""event"":""keydown"",""t"":65270},{""key"":"" "",""event"":""keydown"",""t"":65302},{""key"":"" "",""event"":""keydown"",""t"":65336},{""key"":"" "",""event"":""keydown"",""t"":65367},{""key"":"" "",""event"":""keydown"",""t"":65399},{""key"":"" "",""event"":""keydown"",""t"":65431},{""key"":"" "",""event"":""keydown"",""t"":65464},{""key"":"" "",""event"":""keydown"",""t"":65496},{""key"":"" "",""event"":""keydown"",""t"":65528},{""key"":"" "",""event"":""keydown"",""t"":65562},{""key"":"" "",""event"":""keydown"",""t"":65593},{""key"":"" "",""event"":""keydown"",""t"":65627},{""key"":"" "",""event"":""keydown"",""t"":65659},{""key"":"" "",""event"":""keydown"",""t"":65692},{""key"":"" "",""event"":""keydown"",""t"":65724},{""key"":"" "",""event"":""keydown"",""t"":65755},{""key"":"" "",""event"":""keydown"",""t"":65787},{""key"":"" "",""event"":""keydown"",""t"":65820},{""key"":"" "",""event"":""keydown"",""t"":65852},{""key"":"" "",""event"":""keydown"",""t"":65884},{""key"":"" "",""event"":""keydown"",""t"":65917},{""key"":"" "",""event"":""keydown"",""t"":65950},{""key"":"" "",""event"":""keydown"",""t"":65980},{""key"":"" "",""event"":""keydown"",""t"":66013},{""key"":"" "",""event"":""keydown"",""t"":66045},{""key"":"" "",""event"":""keydown"",""t"":66078},{""key"":"" "",""event"":""keydown"",""t"":66110},{""key"":"" "",""event"":""keydown"",""t"":66143},{""key"":"" "",""event"":""keydown"",""t"":66176},{""key"":"" "",""event"":""keydown"",""t"":66208},{""key"":"" "",""event"":""keydown"",""t"":66241},{""key"":"" "",""event"":""keydown"",""t"":66273},{""key"":"" "",""event"":""keydown"",""t"":66304},{""key"":"" "",""event"":""keydown"",""t"":66337},{""key"":"" "",""event"":""keydown"",""t"":66369},{""key"":"" "",""event"":""keydown"",""t"":66400},{""key"":"" "",""event"":""keydown"",""t"":66433},{""key"":"" "",""event"":""keydown"",""t"":66465},{""key"":"" "",""event"":""keydown"",""t"":66497},{""key"":"" "",""event"":""keydown"",""t"":66529},{""key"":"" "",""event"":""keydown"",""t"":66563},{""key"":"" "",""event"":""keydown"",""t"":66596},{""key"":"" "",""event"":""keydown"",""t"":66627},{""key"":"" "",""event"":""keydown"",""t"":66659},{""key"":"" "",""event"":""keydown"",""t"":66692},{""key"":"" "",""event"":""keydown"",""t"":66725},{""key"":"" "",""event"":""keydown"",""t"":66758},{""key"":"" "",""event"":""keydown"",""t"":66789},{""key"":"" "",""event"":""keydown"",""t"":66824},{""key"":"" "",""event"":""keydown"",""t"":66853},{""key"":"" "",""event"":""keydown"",""t"":66886},{""key"":"" "",""event"":""keydown"",""t"":66918},{""key"":"" "",""event"":""keydown"",""t"":66950},{""key"":"" "",""event"":""keydown"",""t"":66982},{""key"":"" "",""event"":""keydown"",""t"":67014},{""key"":"" "",""event"":""keydown"",""t"":67047},{""key"":"" "",""event"":""keydown"",""t"":67080},{""key"":"" "",""event"":""keydown"",""t"":67112},{""key"":"" "",""event"":""keydown"",""t"":67144},{""key"":"" "",""event"":""keydown"",""t"":67176},{""key"":"" "",""event"":""keydown"",""t"":67208},{""key"":"" "",""event"":""keydown"",""t"":67241},{""key"":"" "",""event"":""keydown"",""t"":67274},{""key"":"" "",""event"":""keydown"",""t"":67307},{""key"":"" "",""event"":""keydown"",""t"":67340},{""key"":"" "",""event"":""keydown"",""t"":67370},{""key"":"" "",""event"":""keydown"",""t"":67403},{""key"":"" "",""event"":""keydown"",""t"":67434},{""key"":"" "",""event"":""keydown"",""t"":67467},{""key"":"" "",""event"":""keydown"",""t"":67498},{""key"":"" "",""event"":""keydown"",""t"":67531},{""key"":"" "",""event"":""keydown"",""t"":67563},{""key"":"" "",""event"":""keydown"",""t"":67596},{""key"":"" "",""event"":""keydown"",""t"":67629},{""key"":""ArrowUp"",""event"":""keydown"",""t"":67639},{""key"":""ArrowRight"",""event"":""keydown"",""t"":68117},{""key"":""ArrowUp"",""event"":""keyup"",""t"":68253},{""key"":""ArrowUp"",""event"":""keydown"",""t"":68331},{""key"":""ArrowUp"",""event"":""keydown"",""t"":68833},{""key"":""ArrowUp"",""event"":""keydown"",""t"":68863},{""key"":""ArrowUp"",""event"":""keydown"",""t"":68895},{""key"":""ArrowUp"",""event"":""keydown"",""t"":68930},{""key"":""ArrowUp"",""event"":""keydown"",""t"":68961},{""key"":""ArrowUp"",""event"":""keydown"",""t"":68993},{""key"":""ArrowUp"",""event"":""keydown"",""t"":69025},{""key"":""ArrowUp"",""event"":""keydown"",""t"":69059},{""key"":""ArrowUp"",""event"":""keydown"",""t"":69090},{""key"":""ArrowUp"",""event"":""keydown"",""t"":69123},{""key"":""ArrowUp"",""event"":""keydown"",""t"":69156},{""key"":""ArrowUp"",""event"":""keydown"",""t"":69191},{""key"":""ArrowUp"",""event"":""keydown"",""t"":69221},{""key"":""ArrowUp"",""event"":""keydown"",""t"":69252},{""key"":""ArrowUp"",""event"":""keydown"",""t"":69285},{""key"":""ArrowUp"",""event"":""keydown"",""t"":69316},{""key"":""ArrowUp"",""event"":""keydown"",""t"":69348},{""key"":""ArrowUp"",""event"":""keydown"",""t"":69382},{""key"":""ArrowUp"",""event"":""keydown"",""t"":69414},{""key"":""ArrowUp"",""event"":""keydown"",""t"":69445},{""key"":""ArrowUp"",""event"":""keydown"",""t"":69478},{""key"":""ArrowUp"",""event"":""keydown"",""t"":69512},{""key"":""ArrowUp"",""event"":""keydown"",""t"":69542},{""key"":""ArrowUp"",""event"":""keydown"",""t"":69574},{""key"":""ArrowUp"",""event"":""keydown"",""t"":69608},{""key"":""ArrowUp"",""event"":""keydown"",""t"":69641},{""key"":""ArrowUp"",""event"":""keydown"",""t"":69673},{""key"":""ArrowUp"",""event"":""keydown"",""t"":69706},{""key"":""ArrowUp"",""event"":""keydown"",""t"":69738},{""key"":""ArrowUp"",""event"":""keydown"",""t"":69772},{""key"":""ArrowUp"",""event"":""keydown"",""t"":69800},{""key"":""ArrowUp"",""event"":""keydown"",""t"":69835},{""key"":""ArrowUp"",""event"":""keydown"",""t"":69866},{""key"":""ArrowUp"",""event"":""keydown"",""t"":69896},{""key"":""ArrowUp"",""event"":""keydown"",""t"":69930},{""key"":""ArrowUp"",""event"":""keydown"",""t"":69965},{""key"":""ArrowUp"",""event"":""keydown"",""t"":69997},{""key"":""ArrowUp"",""event"":""keydown"",""t"":70026},{""key"":""ArrowUp"",""event"":""keydown"",""t"":70059},{""key"":""ArrowUp"",""event"":""keydown"",""t"":70092},{""key"":""ArrowUp"",""event"":""keydown"",""t"":70123},{""key"":""ArrowUp"",""event"":""keydown"",""t"":70156},{""key"":""ArrowUp"",""event"":""keyup"",""t"":70172},{""key"":"" "",""event"":""keyup"",""t"":73203},{""key"":"" "",""event"":""keydown"",""t"":73270},{""key"":"" "",""event"":""keydown"",""t"":73773},{""key"":"" "",""event"":""keydown"",""t"":73806},{""key"":"" "",""event"":""keydown"",""t"":73839},{""key"":"" "",""event"":""keydown"",""t"":73870},{""key"":"" "",""event"":""keydown"",""t"":73902},{""key"":"" "",""event"":""keydown"",""t"":73935},{""key"":"" "",""event"":""keydown"",""t"":73969},{""key"":"" "",""event"":""keydown"",""t"":74001},{""key"":"" "",""event"":""keydown"",""t"":74034},{""key"":"" "",""event"":""keydown"",""t"":74068},{""key"":"" "",""event"":""keydown"",""t"":74098},{""key"":"" "",""event"":""keydown"",""t"":74129},{""key"":"" "",""event"":""keydown"",""t"":74161},{""key"":"" "",""event"":""keydown"",""t"":74193},{""key"":"" "",""event"":""keydown"",""t"":74225},{""key"":"" "",""event"":""keydown"",""t"":74257},{""key"":"" "",""event"":""keydown"",""t"":74289},{""key"":"" "",""event"":""keydown"",""t"":74322},{""key"":"" "",""event"":""keydown"",""t"":74354},{""key"":"" "",""event"":""keydown"",""t"":74387},{""key"":"" "",""event"":""keydown"",""t"":74419},{""key"":"" "",""event"":""keydown"",""t"":74451},{""key"":"" "",""event"":""keydown"",""t"":74485},{""key"":"" "",""event"":""keydown"",""t"":74518},{""key"":"" "",""event"":""keydown"",""t"":74550},{""key"":"" "",""event"":""keydown"",""t"":74584},{""key"":"" "",""event"":""keydown"",""t"":74613},{""key"":"" "",""event"":""keydown"",""t"":74645},{""key"":"" "",""event"":""keydown"",""t"":74679},{""key"":"" "",""event"":""keydown"",""t"":74709},{""key"":"" "",""event"":""keydown"",""t"":74742},{""key"":"" "",""event"":""keydown"",""t"":74774},{""key"":"" "",""event"":""keydown"",""t"":74806},{""key"":"" "",""event"":""keydown"",""t"":74840},{""key"":"" "",""event"":""keydown"",""t"":74872},{""key"":"" "",""event"":""keydown"",""t"":74903},{""key"":"" "",""event"":""keydown"",""t"":74935},{""key"":"" "",""event"":""keydown"",""t"":74968},{""key"":"" "",""event"":""keydown"",""t"":75001},{""key"":"" "",""event"":""keydown"",""t"":75034},{""key"":"" "",""event"":""keydown"",""t"":75067},{""key"":"" "",""event"":""keydown"",""t"":75102},{""key"":"" "",""event"":""keydown"",""t"":75130},{""key"":"" "",""event"":""keydown"",""t"":75162},{""key"":"" "",""event"":""keydown"",""t"":75195},{""key"":"" "",""event"":""keydown"",""t"":75226},{""key"":"" "",""event"":""keydown"",""t"":75258},{""key"":"" "",""event"":""keydown"",""t"":75291},{""key"":"" "",""event"":""keydown"",""t"":75325},{""key"":"" "",""event"":""keydown"",""t"":75356},{""key"":"" "",""event"":""keydown"",""t"":75388},{""key"":"" "",""event"":""keydown"",""t"":75420},{""key"":"" "",""event"":""keydown"",""t"":75452},{""key"":"" "",""event"":""keydown"",""t"":75484},{""key"":"" "",""event"":""keydown"",""t"":75518},{""key"":"" "",""event"":""keydown"",""t"":75551},{""key"":"" "",""event"":""keydown"",""t"":75583},{""key"":"" "",""event"":""keydown"",""t"":75616},{""key"":"" "",""event"":""keydown"",""t"":75647},{""key"":"" "",""event"":""keydown"",""t"":75678},{""key"":"" "",""event"":""keydown"",""t"":75711},{""key"":"" "",""event"":""keydown"",""t"":75743},{""key"":"" "",""event"":""keydown"",""t"":75775},{""key"":"" "",""event"":""keydown"",""t"":75807},{""key"":"" "",""event"":""keydown"",""t"":75840},{""key"":"" "",""event"":""keydown"",""t"":75873},{""key"":"" "",""event"":""keydown"",""t"":75905},{""key"":"" "",""event"":""keydown"",""t"":75937},{""key"":"" "",""event"":""keydown"",""t"":75970},{""key"":"" "",""event"":""keydown"",""t"":76001},{""key"":"" "",""event"":""keydown"",""t"":76034},{""key"":"" "",""event"":""keydown"",""t"":76067},{""key"":"" "",""event"":""keydown"",""t"":76100},{""key"":"" "",""event"":""keydown"",""t"":76134},{""key"":"" "",""event"":""keydown"",""t"":76166},{""key"":"" "",""event"":""keydown"",""t"":76195},{""key"":"" "",""event"":""keydown"",""t"":76228},{""key"":"" "",""event"":""keydown"",""t"":76260},{""key"":"" "",""event"":""keydown"",""t"":76292},{""key"":"" "",""event"":""keydown"",""t"":76326},{""key"":"" "",""event"":""keydown"",""t"":76358},{""key"":"" "",""event"":""keydown"",""t"":76388},{""key"":"" "",""event"":""keydown"",""t"":76421},{""key"":"" "",""event"":""keydown"",""t"":76453},{""key"":"" "",""event"":""keydown"",""t"":76486},{""key"":"" "",""event"":""keydown"",""t"":76518},{""key"":"" "",""event"":""keydown"",""t"":76550},{""key"":"" "",""event"":""keydown"",""t"":76584},{""key"":"" "",""event"":""keydown"",""t"":76615},{""key"":"" "",""event"":""keydown"",""t"":76649},{""key"":"" "",""event"":""keydown"",""t"":76682},{""key"":"" "",""event"":""keydown"",""t"":76713},{""key"":"" "",""event"":""keydown"",""t"":76744},{""key"":"" "",""event"":""keydown"",""t"":76777},{""key"":"" "",""event"":""keydown"",""t"":76809},{""key"":"" "",""event"":""keydown"",""t"":76842},{""key"":"" "",""event"":""keydown"",""t"":76874},{""key"":"" "",""event"":""keydown"",""t"":76906},{""key"":"" "",""event"":""keydown"",""t"":76938},{""key"":"" "",""event"":""keydown"",""t"":76970},{""key"":"" "",""event"":""keydown"",""t"":77002},{""key"":"" "",""event"":""keydown"",""t"":77034},{""key"":"" "",""event"":""keydown"",""t"":77067},{""key"":"" "",""event"":""keydown"",""t"":77100},{""key"":"" "",""event"":""keydown"",""t"":77133},{""key"":"" "",""event"":""keydown"",""t"":77166},{""key"":"" "",""event"":""keydown"",""t"":77198},{""key"":"" "",""event"":""keydown"",""t"":77230},{""key"":"" "",""event"":""keydown"",""t"":77261},{""key"":"" "",""event"":""keydown"",""t"":77294},{""key"":"" "",""event"":""keydown"",""t"":77325},{""key"":"" "",""event"":""keydown"",""t"":77359},{""key"":"" "",""event"":""keydown"",""t"":77391},{""key"":"" "",""event"":""keydown"",""t"":77422},{""key"":"" "",""event"":""keydown"",""t"":77454},{""key"":"" "",""event"":""keydown"",""t"":77487},{""key"":"" "",""event"":""keydown"",""t"":77519},{""key"":"" "",""event"":""keydown"",""t"":77551},{""key"":"" "",""event"":""keydown"",""t"":77583},{""key"":"" "",""event"":""keydown"",""t"":77617},{""key"":"" "",""event"":""keydown"",""t"":77649},{""key"":"" "",""event"":""keydown"",""t"":77683},{""key"":"" "",""event"":""keydown"",""t"":77715},{""key"":"" "",""event"":""keydown"",""t"":77748},{""key"":"" "",""event"":""keydown"",""t"":77778},{""key"":"" "",""event"":""keydown"",""t"":77809},{""key"":"" "",""event"":""keydown"",""t"":77844},{""key"":"" "",""event"":""keydown"",""t"":77876},{""key"":"" "",""event"":""keydown"",""t"":77907},{""key"":"" "",""event"":""keydown"",""t"":77939},{""key"":"" "",""event"":""keydown"",""t"":77972},{""key"":"" "",""event"":""keydown"",""t"":78004},{""key"":"" "",""event"":""keydown"",""t"":78036},{""key"":"" "",""event"":""keydown"",""t"":78068},{""key"":"" "",""event"":""keydown"",""t"":78101},{""key"":"" "",""event"":""keydown"",""t"":78133},{""key"":"" "",""event"":""keydown"",""t"":78166},{""key"":"" "",""event"":""keydown"",""t"":78199},{""key"":"" "",""event"":""keydown"",""t"":78231},{""key"":"" "",""event"":""keydown"",""t"":78264},{""key"":"" "",""event"":""keydown"",""t"":78295},{""key"":""ArrowLeft"",""event"":""keydown"",""t"":78331},{""key"":""ArrowRight"",""event"":""keyup"",""t"":78358},{""key"":""ArrowLeft"",""event"":""keyup"",""t"":78653},{""key"":""ArrowLeft"",""event"":""keydown"",""t"":78969},{""key"":""ArrowLeft"",""event"":""keyup"",""t"":79332},{""key"":""ArrowLeft"",""event"":""keydown"",""t"":79664},{""key"":""ArrowLeft"",""event"":""keyup"",""t"":79889},{""key"":""ArrowLeft"",""event"":""keydown"",""t"":80513},{""key"":""ArrowLeft"",""event"":""keyup"",""t"":80680},{""key"":""ArrowLeft"",""event"":""keydown"",""t"":81173},{""key"":""ArrowLeft"",""event"":""keyup"",""t"":81312},{""key"":""ArrowRight"",""event"":""keydown"",""t"":83294},{""key"":""ArrowRight"",""event"":""keydown"",""t"":83798},{""key"":""ArrowRight"",""event"":""keydown"",""t"":83830},{""key"":""ArrowRight"",""event"":""keydown"",""t"":83862},{""key"":""ArrowRight"",""event"":""keydown"",""t"":83894},{""key"":""ArrowRight"",""event"":""keydown"",""t"":83928},{""key"":""ArrowRight"",""event"":""keydown"",""t"":83960},{""key"":""ArrowRight"",""event"":""keydown"",""t"":83993},{""key"":""ArrowRight"",""event"":""keydown"",""t"":84026},{""key"":""ArrowRight"",""event"":""keydown"",""t"":84058},{""key"":""ArrowRight"",""event"":""keydown"",""t"":84088},{""key"":""ArrowRight"",""event"":""keydown"",""t"":84121},{""key"":""ArrowRight"",""event"":""keydown"",""t"":84154},{""key"":""ArrowRight"",""event"":""keydown"",""t"":84187},{""key"":""ArrowRight"",""event"":""keydown"",""t"":84218},{""key"":""ArrowRight"",""event"":""keydown"",""t"":84251},{""key"":""ArrowRight"",""event"":""keydown"",""t"":84282},{""key"":""ArrowRight"",""event"":""keydown"",""t"":84314},{""key"":""ArrowRight"",""event"":""keydown"",""t"":84346},{""key"":""ArrowRight"",""event"":""keydown"",""t"":84380},{""key"":""ArrowRight"",""event"":""keydown"",""t"":84411},{""key"":""ArrowRight"",""event"":""keydown"",""t"":84443},{""key"":""ArrowRight"",""event"":""keydown"",""t"":84477},{""key"":""ArrowRight"",""event"":""keydown"",""t"":84510},{""key"":""ArrowRight"",""event"":""keydown"",""t"":84542},{""key"":""ArrowRight"",""event"":""keydown"",""t"":84575},{""key"":""ArrowRight"",""event"":""keydown"",""t"":84609},{""key"":""ArrowRight"",""event"":""keydown"",""t"":84637},{""key"":""ArrowRight"",""event"":""keyup"",""t"":84646},{""key"":""ArrowLeft"",""event"":""keydown"",""t"":85015},{""key"":""ArrowLeft"",""event"":""keyup"",""t"":85319},{""key"":""ArrowLeft"",""event"":""keydown"",""t"":85678},{""key"":""ArrowLeft"",""event"":""keydown"",""t"":86181},{""key"":""ArrowLeft"",""event"":""keydown"",""t"":86212},{""key"":""ArrowLeft"",""event"":""keydown"",""t"":86244},{""key"":""ArrowLeft"",""event"":""keydown"",""t"":86278},{""key"":""ArrowLeft"",""event"":""keydown"",""t"":86310},{""key"":""ArrowLeft"",""event"":""keydown"",""t"":86341},{""key"":""ArrowLeft"",""event"":""keydown"",""t"":86374},{""key"":""ArrowLeft"",""event"":""keydown"",""t"":86408},{""key"":""ArrowLeft"",""event"":""keydown"",""t"":86441},{""key"":""ArrowLeft"",""event"":""keydown"",""t"":86473},{""key"":""ArrowLeft"",""event"":""keydown"",""t"":86503},{""key"":""ArrowLeft"",""event"":""keydown"",""t"":86536},{""key"":""ArrowLeft"",""event"":""keyup"",""t"":86559},{""key"":""ArrowLeft"",""event"":""keydown"",""t"":87178},{""key"":""ArrowRight"",""event"":""keydown"",""t"":87650},{""key"":""ArrowLeft"",""event"":""keyup"",""t"":87696},{""key"":""ArrowRight"",""event"":""keyup"",""t"":88024},{""key"":""ArrowLeft"",""event"":""keydown"",""t"":88538},{""key"":""ArrowLeft"",""event"":""keyup"",""t"":88824},{""key"":""ArrowRight"",""event"":""keydown"",""t"":89091},{""key"":""ArrowRight"",""event"":""keyup"",""t"":89361},{""key"":""ArrowLeft"",""event"":""keydown"",""t"":90183},{""key"":""ArrowLeft"",""event"":""keyup"",""t"":90612},{""key"":""ArrowLeft"",""event"":""keydown"",""t"":91148},{""key"":""ArrowLeft"",""event"":""keyup"",""t"":91458},{""key"":""ArrowRight"",""event"":""keydown"",""t"":93042},{""key"":""ArrowRight"",""event"":""keydown"",""t"":93545},{""key"":""ArrowRight"",""event"":""keydown"",""t"":93575},{""key"":""ArrowRight"",""event"":""keydown"",""t"":93607},{""key"":""ArrowRight"",""event"":""keydown"",""t"":93641},{""key"":""ArrowRight"",""event"":""keydown"",""t"":93673},{""key"":""ArrowRight"",""event"":""keydown"",""t"":93704},{""key"":""ArrowRight"",""event"":""keydown"",""t"":93735},{""key"":""ArrowRight"",""event"":""keydown"",""t"":93771},{""key"":""ArrowRight"",""event"":""keydown"",""t"":93802},{""key"":""ArrowRight"",""event"":""keydown"",""t"":93834},{""key"":""ArrowRight"",""event"":""keydown"",""t"":93867},{""key"":""ArrowRight"",""event"":""keydown"",""t"":93901},{""key"":""ArrowRight"",""event"":""keydown"",""t"":93933},{""key"":""ArrowLeft"",""event"":""keydown"",""t"":93941},{""key"":""ArrowRight"",""event"":""keyup"",""t"":94029},{""key"":""ArrowLeft"",""event"":""keyup"",""t"":94289},{""key"":""ArrowLeft"",""event"":""keydown"",""t"":94710},{""key"":""ArrowLeft"",""event"":""keydown"",""t"":95216},{""key"":""ArrowLeft"",""event"":""keydown"",""t"":95250},{""key"":""ArrowLeft"",""event"":""keydown"",""t"":95283},{""key"":""ArrowLeft"",""event"":""keydown"",""t"":95311},{""key"":""ArrowLeft"",""event"":""keydown"",""t"":95348},{""key"":""ArrowLeft"",""event"":""keydown"",""t"":95378},{""key"":""ArrowLeft"",""event"":""keydown"",""t"":95408},{""key"":""ArrowLeft"",""event"":""keydown"",""t"":95441},{""key"":""ArrowLeft"",""event"":""keydown"",""t"":95475},{""key"":""ArrowLeft"",""event"":""keydown"",""t"":95505},{""key"":""ArrowLeft"",""event"":""keydown"",""t"":95537},{""key"":""ArrowLeft"",""event"":""keydown"",""t"":95570},{""key"":""ArrowLeft"",""event"":""keydown"",""t"":95603},{""key"":""ArrowLeft"",""event"":""keydown"",""t"":95635},{""key"":""ArrowLeft"",""event"":""keydown"",""t"":95667},{""key"":""ArrowLeft"",""event"":""keydown"",""t"":95700},{""key"":""ArrowLeft"",""event"":""keydown"",""t"":95734},{""key"":""ArrowLeft"",""event"":""keydown"",""t"":95765},{""key"":""ArrowLeft"",""event"":""keydown"",""t"":95799},{""key"":""ArrowLeft"",""event"":""keydown"",""t"":95829},{""key"":""ArrowLeft"",""event"":""keydown"",""t"":95862},{""key"":""ArrowLeft"",""event"":""keydown"",""t"":95892},{""key"":""ArrowLeft"",""event"":""keydown"",""t"":95927},{""key"":""ArrowLeft"",""event"":""keydown"",""t"":95958},{""key"":""ArrowLeft"",""event"":""keydown"",""t"":95989},{""key"":""ArrowLeft"",""event"":""keydown"",""t"":96022},{""key"":""ArrowLeft"",""event"":""keydown"",""t"":96056},{""key"":""ArrowLeft"",""event"":""keydown"",""t"":96086},{""key"":""ArrowLeft"",""event"":""keydown"",""t"":96118},{""key"":""ArrowLeft"",""event"":""keydown"",""t"":96152},{""key"":""ArrowLeft"",""event"":""keydown"",""t"":96184},{""key"":""ArrowLeft"",""event"":""keydown"",""t"":96216},{""key"":""ArrowLeft"",""event"":""keydown"",""t"":96249},{""key"":""ArrowLeft"",""event"":""keydown"",""t"":96283},{""key"":""ArrowLeft"",""event"":""keydown"",""t"":96315},{""key"":""ArrowLeft"",""event"":""keydown"",""t"":96344},{""key"":""ArrowLeft"",""event"":""keydown"",""t"":96382},{""key"":""ArrowLeft"",""event"":""keydown"",""t"":96410},{""key"":""ArrowLeft"",""event"":""keydown"",""t"":96441},{""key"":""ArrowLeft"",""event"":""keydown"",""t"":96475},{""key"":""ArrowLeft"",""event"":""keydown"",""t"":96509},{""key"":""ArrowLeft"",""event"":""keydown"",""t"":96539},{""key"":""ArrowLeft"",""event"":""keydown"",""t"":96570},{""key"":""ArrowLeft"",""event"":""keydown"",""t"":96605},{""key"":""ArrowLeft"",""event"":""keydown"",""t"":96637},{""key"":""ArrowLeft"",""event"":""keydown"",""t"":96667},{""key"":""ArrowLeft"",""event"":""keydown"",""t"":96701},{""key"":""ArrowLeft"",""event"":""keydown"",""t"":96735},{""key"":""ArrowLeft"",""event"":""keydown"",""t"":96766},{""key"":""ArrowLeft"",""event"":""keydown"",""t"":96798},{""key"":""ArrowLeft"",""event"":""keydown"",""t"":96831},{""key"":""ArrowLeft"",""event"":""keydown"",""t"":96865},{""key"":""ArrowLeft"",""event"":""keydown"",""t"":96893},{""key"":""ArrowLeft"",""event"":""keydown"",""t"":96927},{""key"":""ArrowLeft"",""event"":""keydown"",""t"":96963},{""key"":""ArrowLeft"",""event"":""keydown"",""t"":96992},{""key"":""ArrowRight"",""event"":""keydown"",""t"":97003},{""key"":""ArrowLeft"",""event"":""keyup"",""t"":97079},{""key"":""ArrowRight"",""event"":""keydown"",""t"":97503},{""key"":""ArrowRight"",""event"":""keydown"",""t"":97535},{""key"":""ArrowRight"",""event"":""keydown"",""t"":97570},{""key"":""ArrowRight"",""event"":""keydown"",""t"":97601},{""key"":""ArrowRight"",""event"":""keydown"",""t"":97633},{""key"":""ArrowRight"",""event"":""keydown"",""t"":97666},{""key"":""ArrowRight"",""event"":""keydown"",""t"":97700},{""key"":""ArrowRight"",""event"":""keydown"",""t"":97732},{""key"":""ArrowRight"",""event"":""keydown"",""t"":97764},{""key"":""ArrowRight"",""event"":""keydown"",""t"":97798},{""key"":""ArrowRight"",""event"":""keydown"",""t"":97830},{""key"":""ArrowRight"",""event"":""keydown"",""t"":97858},{""key"":""ArrowRight"",""event"":""keydown"",""t"":97893},{""key"":""ArrowRight"",""event"":""keydown"",""t"":97926},{""key"":""ArrowRight"",""event"":""keydown"",""t"":97956},{""key"":""ArrowRight"",""event"":""keydown"",""t"":97988},{""key"":""ArrowRight"",""event"":""keydown"",""t"":98023},{""key"":""ArrowRight"",""event"":""keydown"",""t"":98054},{""key"":""ArrowRight"",""event"":""keydown"",""t"":98084},{""key"":""ArrowRight"",""event"":""keydown"",""t"":98118},{""key"":""ArrowRight"",""event"":""keydown"",""t"":98152},{""key"":""ArrowRight"",""event"":""keydown"",""t"":98183},{""key"":""ArrowRight"",""event"":""keydown"",""t"":98215},{""key"":""ArrowRight"",""event"":""keydown"",""t"":98248},{""key"":""ArrowRight"",""event"":""keydown"",""t"":98281},{""key"":""ArrowRight"",""event"":""keydown"",""t"":98313},{""key"":""ArrowRight"",""event"":""keydown"",""t"":98344},{""key"":""ArrowRight"",""event"":""keydown"",""t"":98381},{""key"":""ArrowRight"",""event"":""keydown"",""t"":98409},{""key"":""ArrowRight"",""event"":""keydown"",""t"":98441},{""key"":""ArrowRight"",""event"":""keydown"",""t"":98473},{""key"":""ArrowRight"",""event"":""keydown"",""t"":98507},{""key"":""ArrowRight"",""event"":""keydown"",""t"":98537},{""key"":""ArrowLeft"",""event"":""keydown"",""t"":98549},{""key"":""ArrowLeft"",""event"":""keyup"",""t"":98598},{""key"":""ArrowRight"",""event"":""keyup"",""t"":98743},{""key"":""ArrowRight"",""event"":""keydown"",""t"":101227},{""key"":""ArrowRight"",""event"":""keydown"",""t"":101729},{""key"":""ArrowRight"",""event"":""keydown"",""t"":101762},{""key"":""ArrowRight"",""event"":""keydown"",""t"":101795},{""key"":""ArrowRight"",""event"":""keydown"",""t"":101829},{""key"":""ArrowRight"",""event"":""keydown"",""t"":101860},{""key"":""ArrowRight"",""event"":""keydown"",""t"":101895},{""key"":""ArrowRight"",""event"":""keydown"",""t"":101924},{""key"":""ArrowRight"",""event"":""keydown"",""t"":101955},{""key"":""ArrowRight"",""event"":""keydown"",""t"":101988},{""key"":""ArrowRight"",""event"":""keydown"",""t"":102022},{""key"":""ArrowRight"",""event"":""keydown"",""t"":102053},{""key"":""ArrowRight"",""event"":""keydown"",""t"":102084},{""key"":""ArrowRight"",""event"":""keydown"",""t"":102119},{""key"":""ArrowRight"",""event"":""keydown"",""t"":102150},{""key"":""ArrowRight"",""event"":""keydown"",""t"":102181},{""key"":""ArrowRight"",""event"":""keydown"",""t"":102214},{""key"":""ArrowRight"",""event"":""keydown"",""t"":102248},{""key"":""ArrowRight"",""event"":""keydown"",""t"":102279},{""key"":""ArrowRight"",""event"":""keydown"",""t"":102311},{""key"":""ArrowRight"",""event"":""keydown"",""t"":102345},{""key"":""ArrowRight"",""event"":""keydown"",""t"":102378},{""key"":""ArrowRight"",""event"":""keydown"",""t"":102409},{""key"":""ArrowRight"",""event"":""keydown"",""t"":102439},{""key"":""ArrowRight"",""event"":""keydown"",""t"":102478},{""key"":""ArrowRight"",""event"":""keydown"",""t"":102505},{""key"":""ArrowRight"",""event"":""keydown"",""t"":102538},{""key"":""ArrowRight"",""event"":""keydown"",""t"":102570},{""key"":""ArrowRight"",""event"":""keydown"",""t"":102603},{""key"":""ArrowRight"",""event"":""keydown"",""t"":102633},{""key"":""ArrowRight"",""event"":""keydown"",""t"":102667},{""key"":""ArrowRight"",""event"":""keydown"",""t"":102700},{""key"":""ArrowRight"",""event"":""keydown"",""t"":102732},{""key"":""ArrowRight"",""event"":""keydown"",""t"":102764},{""key"":""ArrowRight"",""event"":""keydown"",""t"":102795},{""key"":""ArrowRight"",""event"":""keydown"",""t"":102829},{""key"":""ArrowRight"",""event"":""keydown"",""t"":102861},{""key"":""ArrowRight"",""event"":""keydown"",""t"":102894},{""key"":""ArrowRight"",""event"":""keydown"",""t"":102926},{""key"":""ArrowRight"",""event"":""keydown"",""t"":102959},{""key"":""ArrowRight"",""event"":""keydown"",""t"":102992},{""key"":""ArrowRight"",""event"":""keydown"",""t"":103022},{""key"":""ArrowRight"",""event"":""keydown"",""t"":103058},{""key"":""ArrowRight"",""event"":""keydown"",""t"":103087},{""key"":""ArrowRight"",""event"":""keydown"",""t"":103118},{""key"":""ArrowRight"",""event"":""keydown"",""t"":103152},{""key"":""ArrowRight"",""event"":""keydown"",""t"":103184},{""key"":""ArrowRight"",""event"":""keydown"",""t"":103215},{""key"":""ArrowRight"",""event"":""keydown"",""t"":103249},{""key"":""ArrowRight"",""event"":""keydown"",""t"":103282},{""key"":""ArrowRight"",""event"":""keydown"",""t"":103313},{""key"":""ArrowRight"",""event"":""keydown"",""t"":103345},{""key"":""ArrowRight"",""event"":""keydown"",""t"":103379},{""key"":""ArrowRight"",""event"":""keydown"",""t"":103411},{""key"":""ArrowRight"",""event"":""keydown"",""t"":103444},{""key"":""ArrowRight"",""event"":""keydown"",""t"":103477},{""key"":""ArrowRight"",""event"":""keydown"",""t"":103510},{""key"":""ArrowRight"",""event"":""keydown"",""t"":103542},{""key"":""ArrowRight"",""event"":""keydown"",""t"":103572},{""key"":""ArrowRight"",""event"":""keydown"",""t"":103608},{""key"":""ArrowRight"",""event"":""keydown"",""t"":103637},{""key"":""ArrowRight"",""event"":""keydown"",""t"":103667},{""key"":""ArrowRight"",""event"":""keydown"",""t"":103700},{""key"":""ArrowRight"",""event"":""keydown"",""t"":103736},{""key"":""ArrowRight"",""event"":""keydown"",""t"":103766},{""key"":""ArrowRight"",""event"":""keydown"",""t"":103798},{""key"":""ArrowRight"",""event"":""keydown"",""t"":103830},{""key"":""ArrowRight"",""event"":""keydown"",""t"":103863},{""key"":""ArrowRight"",""event"":""keydown"",""t"":103896},{""key"":""ArrowRight"",""event"":""keydown"",""t"":103926},{""key"":""ArrowRight"",""event"":""keydown"",""t"":103960},{""key"":""ArrowRight"",""event"":""keydown"",""t"":103994},{""key"":""ArrowRight"",""event"":""keydown"",""t"":104026},{""key"":""ArrowRight"",""event"":""keydown"",""t"":104058},{""key"":""ArrowRight"",""event"":""keydown"",""t"":104092},{""key"":""ArrowRight"",""event"":""keydown"",""t"":104121},{""key"":""ArrowRight"",""event"":""keydown"",""t"":104154},{""key"":""ArrowRight"",""event"":""keydown"",""t"":104186},{""key"":""ArrowRight"",""event"":""keydown"",""t"":104218},{""key"":""ArrowRight"",""event"":""keydown"",""t"":104251},{""key"":""ArrowRight"",""event"":""keydown"",""t"":104283},{""key"":""ArrowRight"",""event"":""keydown"",""t"":104315},{""key"":""ArrowRight"",""event"":""keydown"",""t"":104349},{""key"":""ArrowRight"",""event"":""keydown"",""t"":104379},{""key"":""ArrowRight"",""event"":""keydown"",""t"":104413},{""key"":""ArrowRight"",""event"":""keydown"",""t"":104445},{""key"":""ArrowRight"",""event"":""keydown"",""t"":104476},{""key"":""ArrowRight"",""event"":""keydown"",""t"":104510},{""key"":""ArrowRight"",""event"":""keydown"",""t"":104542},{""key"":""ArrowRight"",""event"":""keydown"",""t"":104576},{""key"":""ArrowRight"",""event"":""keydown"",""t"":104608},{""key"":""ArrowRight"",""event"":""keydown"",""t"":104642},{""key"":""ArrowRight"",""event"":""keydown"",""t"":104674},{""key"":""ArrowRight"",""event"":""keydown"",""t"":104701},{""key"":""ArrowRight"",""event"":""keydown"",""t"":104736},{""key"":""ArrowRight"",""event"":""keydown"",""t"":104770},{""key"":""ArrowRight"",""event"":""keydown"",""t"":104800},{""key"":""ArrowRight"",""event"":""keydown"",""t"":104832},{""key"":""ArrowRight"",""event"":""keydown"",""t"":104864},{""key"":""ArrowRight"",""event"":""keydown"",""t"":104899},{""key"":""ArrowRight"",""event"":""keydown"",""t"":104928},{""key"":""ArrowRight"",""event"":""keydown"",""t"":104960},{""key"":""ArrowRight"",""event"":""keydown"",""t"":104996},{""key"":""ArrowRight"",""event"":""keydown"",""t"":105026},{""key"":""ArrowRight"",""event"":""keydown"",""t"":105059},{""key"":""ArrowRight"",""event"":""keydown"",""t"":105092},{""key"":""ArrowRight"",""event"":""keydown"",""t"":105125},{""key"":""ArrowRight"",""event"":""keydown"",""t"":105157},{""key"":""ArrowRight"",""event"":""keydown"",""t"":105187},{""key"":""ArrowRight"",""event"":""keydown"",""t"":105224},{""key"":""ArrowRight"",""event"":""keydown"",""t"":105253},{""key"":""ArrowRight"",""event"":""keydown"",""t"":105285},{""key"":""ArrowRight"",""event"":""keydown"",""t"":105317},{""key"":""ArrowRight"",""event"":""keydown"",""t"":105350},{""key"":""ArrowRight"",""event"":""keydown"",""t"":105381},{""key"":""ArrowRight"",""event"":""keydown"",""t"":105413},{""key"":""ArrowRight"",""event"":""keydown"",""t"":105447},{""key"":""ArrowRight"",""event"":""keydown"",""t"":105479},{""key"":""ArrowRight"",""event"":""keydown"",""t"":105511},{""key"":""ArrowRight"",""event"":""keydown"",""t"":105543},{""key"":""ArrowRight"",""event"":""keydown"",""t"":105577},{""key"":""ArrowRight"",""event"":""keydown"",""t"":105608},{""key"":""ArrowRight"",""event"":""keydown"",""t"":105641},{""key"":""ArrowRight"",""event"":""keydown"",""t"":105675},{""key"":""ArrowRight"",""event"":""keydown"",""t"":105707},{""key"":""ArrowRight"",""event"":""keydown"",""t"":105735},{""key"":""ArrowRight"",""event"":""keydown"",""t"":105770},{""key"":""ArrowRight"",""event"":""keydown"",""t"":105803},{""key"":""ArrowRight"",""event"":""keydown"",""t"":105834},{""key"":""ArrowRight"",""event"":""keydown"",""t"":105866},{""key"":""ArrowRight"",""event"":""keydown"",""t"":105901},{""key"":""ArrowRight"",""event"":""keydown"",""t"":105932},{""key"":""ArrowRight"",""event"":""keydown"",""t"":105962},{""key"":""ArrowRight"",""event"":""keydown"",""t"":105996},{""key"":""ArrowRight"",""event"":""keydown"",""t"":106029},{""key"":""ArrowRight"",""event"":""keydown"",""t"":106062},{""key"":""ArrowRight"",""event"":""keydown"",""t"":106092},{""key"":""ArrowRight"",""event"":""keydown"",""t"":106126},{""key"":""ArrowRight"",""event"":""keydown"",""t"":106158},{""key"":""ArrowRight"",""event"":""keydown"",""t"":106190},{""key"":""ArrowRight"",""event"":""keydown"",""t"":106224},{""key"":""ArrowRight"",""event"":""keydown"",""t"":106257},{""key"":""ArrowRight"",""event"":""keydown"",""t"":106290},{""key"":""ArrowRight"",""event"":""keydown"",""t"":106319},{""key"":""ArrowRight"",""event"":""keydown"",""t"":106351},{""key"":""ArrowRight"",""event"":""keydown"",""t"":106385},{""key"":""ArrowRight"",""event"":""keydown"",""t"":106417},{""key"":""ArrowRight"",""event"":""keydown"",""t"":106448},{""key"":""ArrowRight"",""event"":""keydown"",""t"":106481},{""key"":""ArrowRight"",""event"":""keydown"",""t"":106514},{""key"":""ArrowRight"",""event"":""keydown"",""t"":106545},{""key"":""ArrowRight"",""event"":""keydown"",""t"":106577},{""key"":""ArrowRight"",""event"":""keydown"",""t"":106610},{""key"":""ArrowRight"",""event"":""keydown"",""t"":106642},{""key"":""ArrowRight"",""event"":""keydown"",""t"":106674},{""key"":""ArrowRight"",""event"":""keydown"",""t"":106708},{""key"":""ArrowRight"",""event"":""keydown"",""t"":106741},{""key"":""ArrowRight"",""event"":""keydown"",""t"":106774},{""key"":""ArrowRight"",""event"":""keydown"",""t"":106807},{""key"":""ArrowRight"",""event"":""keydown"",""t"":106839},{""key"":""ArrowRight"",""event"":""keydown"",""t"":106872},{""key"":""ArrowRight"",""event"":""keydown"",""t"":106902},{""key"":""ArrowRight"",""event"":""keydown"",""t"":106934},{""key"":""ArrowRight"",""event"":""keydown"",""t"":106964},{""key"":""ArrowRight"",""event"":""keydown"",""t"":106996},{""key"":""ArrowRight"",""event"":""keydown"",""t"":107030},{""key"":""ArrowRight"",""event"":""keydown"",""t"":107063},{""key"":""ArrowRight"",""event"":""keyup"",""t"":107084},{""key"":"" "",""event"":""keyup"",""t"":107130},{""key"":"" "",""event"":""keydown"",""t"":107373},{""key"":"" "",""event"":""keyup"",""t"":107657},{""key"":""Enter"",""event"":""keydown"",""t"":109013}]","[]"
"228085","","{""creativity-rating"":3,""creativity-free-response"":""It was the breaking down of walls"",""originality-rating"":2,""originality-free-response"":""The game does not feel any new, if anything it also feels nostalgic"",""effectiveness-rating"":4,""effectiveness-free-response"":""It was fun,  To learn also how fast the dot bounced in between the wall, it need a few obstructions"",""authenticity-rating"":3,""attention-check"":3,""intentionality-rating"":2,""authenticity-intentionality-free-response"":""authenticity is fairly contsructive, and intentionality is pretty clear but effort is low nothing pretty interesting has been displayed, like I said no obstructions""}","evaluation-gemini-6-redact","survey","8","688654","0.0-8.0","66d0944b9f8f566817ad708c","6987c292780adf01bb926159","69a4faec09ccd76ef89ffd18","","","","","","",""
"8669","","{""concept-creativity-rating"":3,""concept-implementation-rating"":4,""question1"":null}","concept-gemini-6-redact","survey","9","697338","0.0-9.0","66d0944b9f8f566817ad708c","6987c292780adf01bb926159","69a4faec09ccd76ef89ffd18","","","","","","",""
"2406","You have completed your evaluation of the second video game.<br><br>Press any key to proceed to the final game."," ","pre-game-three-message","html-keyboard-response","10","699745","0.0-10.0","66d0944b9f8f566817ad708c","6987c292780adf01bb926159","69a4faec09ccd76ef89ffd18","","","","","","",""
"180626","","","game-claude-6-flame","plugin-game-iframe","11","880402","0.0-11.0","66d0944b9f8f566817ad708c","6987c292780adf01bb926159","69a4faec09ccd76ef89ffd18","game-complete","ending","{""stage"":""ending"",""detail"":{""distancePct"":96,""glowPhase"":4.7,""flamesPlaced"":3,""isDead"":false,""isEnding"":true}}","{""result"":""win"",""distance"":6168.565898295445}","null","[{""key"":"" "",""event"":""keyup"",""t"":232},{""key"":"" "",""event"":""keydown"",""t"":3917},{""key"":"" "",""event"":""keyup"",""t"":4192},{""key"":""ArrowUp"",""event"":""keydown"",""t"":7683},{""key"":""ArrowRight"",""event"":""keydown"",""t"":8142},{""key"":""ArrowRight"",""event"":""keyup"",""t"":8419},{""key"":""ArrowUp"",""event"":""keyup"",""t"":8443},{""key"":"" "",""event"":""keydown"",""t"":9132},{""key"":"" "",""event"":""keyup"",""t"":9363},{""key"":"" "",""event"":""keydown"",""t"":9476},{""key"":"" "",""event"":""keyup"",""t"":9684},{""key"":""ArrowRight"",""event"":""keydown"",""t"":9899},{""key"":""ArrowRight"",""event"":""keyup"",""t"":10270},{""key"":""Enter"",""event"":""keydown"",""t"":180609}]","[]"
"148636","","{""creativity-rating"":5,""creativity-free-response"":""Creative, the idea of moth and light is pretty fun"",""originality-rating"":4,""originality-free-response"":""The idea of creating light to lure the moth aways is pretty fun"",""effectiveness-rating"":4,""effectiveness-free-response"":""Trying to lure the moth away was pretty fun"",""authenticity-rating"":5,""attention-check"":3,""intentionality-rating"":5,""authenticity-intentionality-free-response"":""not much i can say but this game was fun, apprecite the effort and the intentionality was pretty clear ""}","evaluation-claude-6-flame","survey","12","1029057","0.0-12.0","66d0944b9f8f566817ad708c","6987c292780adf01bb926159","69a4faec09ccd76ef89ffd18","","","","","","",""
"9604","","{""concept-creativity-rating"":5,""concept-implementation-rating"":5,""question1"":null}","concept-claude-6-flame","survey","13","1038675","0.0-13.0","66d0944b9f8f566817ad708c","6987c292780adf01bb926159","69a4faec09ccd76ef89ffd18","","","","","","",""
"2954","You have completed all of the games!<br><br>Press any key to proceed to some final questions before returning to Prolific."," ","pre-baseline-questions","html-keyboard-response","14","1041631","0.0-14.0","66d0944b9f8f566817ad708c","6987c292780adf01bb926159","69a4faec09ccd76ef89ffd18","","","","","","",""
"12440","","{""baseline_originality_rating"":3,""baseline_effectiveness_rating"":4,""baseline_authenticity_rating"":3,""baseline_intentionality_rating"":3}","baseline-questions-rating","survey","15","1054082","0.0-15.0","66d0944b9f8f566817ad708c","6987c292780adf01bb926159","69a4faec09ccd76ef89ffd18","","","","","","",""
"85879","","{""ai_aware_question"":""No, i had the impression that it might be first coder projects, they lacked a lot of obstructions and creativity, like they were just the decoy not the final products""}","ai-aware-question","survey","16","1139969","0.0-16.0","66d0944b9f8f566817ad708c","6987c292780adf01bb926159","69a4faec09ccd76ef89ffd18","","","","","","",""
"6627","
        <p> You have completed the experiment! Press any key to save your data and get redirected back to Prolific. <strong>Please do not close the page until you have been redirected to Prolific.</strong> <p>
      "," ","goodbye","html-keyboard-response","17","1146597","0.0-17.0","66d0944b9f8f566817ad708c","6987c292780adf01bb926159","69a4faec09ccd76ef89ffd18","","","","","","",""
