"rt","stimulus","response","phase","trial_type","trial_index","time_elapsed","internal_node_id","prolific_subject_id","study_id","session_id","exit_reason","exit_stage","exit_progress","game_data","emergency_text","keystrokes","mouse_events"
"12954","Welcome!<br><br>In this study, you will play three short video games that were generated by Artificial Intelligence (AI) and complete a short survey after each game.<br><br>Please make sure you are in a quiet environment where you can focus for the duration of the study. Some games may use sound, so please ensure that your device's volume is not muted.<br><br>Press any key to begin.","enter","welcome-message","html-keyboard-response","0","12959","0.0-0.0","69967d911d9f679e547767a2","6987c292780adf01bb926159","69a379b9923a6778b530aea1","","","","","","",""
"34261","","{""commitment-check"":[""yes""]}","commitment-check","survey","1","47237","0.0-1.0","69967d911d9f679e547767a2","6987c292780adf01bb926159","69a379b9923a6778b530aea1","","","","","","",""
"2243","Press any key to proceed to the first video game. Should you encounter a game-breaking bug, please report the issue in the Menu tab to the right of the screen."," ","pre-game-one-message","html-keyboard-response","2","49480","0.0-2.0","69967d911d9f679e547767a2","6987c292780adf01bb926159","69a379b9923a6778b530aea1","","","","","","",""
"665921","","","game-claude-5-cartographer","plugin-game-iframe","3","715403","0.0-3.0","69967d911d9f679e547767a2","6987c292780adf01bb926159","69a379b9923a6778b530aea1","game-complete","phase:results (land 1%)","{""stage"":""phase:results (land 1%)"",""detail"":{""gamePhase"":""results"",""landSaved"":3,""landPercent"":1,""elapsedTime"":300.0086219999996,""citiesAlive"":3,""ink"":95.5511520000003}}","{""result"":""complete"",""landPercent"":1,""citiesSurviving"":3,""peopleSaved"":2500}","null","[{""key"":"" "",""event"":""keyup"",""t"":69},{""key"":""PrintScreen"",""event"":""keyup"",""t"":20912},{""key"":""Alt"",""event"":""keydown"",""t"":26591},{""key"":""PrintScreen"",""event"":""keyup"",""t"":26818},{""key"":""Alt"",""event"":""keyup"",""t"":27124},{""key"":"" "",""event"":""keydown"",""t"":505148},{""key"":"" "",""event"":""keyup"",""t"":505296},{""key"":""Enter"",""event"":""keydown"",""t"":665921}]","[]"
"922001","","{""creativity-rating"":3,""creativity-free-response"":""This game is creative in its core concept; the base idea is interesting, and protecting all the cities offers a genuine challenge.\n\nHowever, the gameplay loop lacks creativity and quickly becomes extremely repetitive. There is a severe lack of visual indicators regarding the protection status of the villages, and the fog wave itself lacks impact and a real sense of threat.\n\nHonorable mention for the areas that resist the ink—that is a genuinely interesting mechanic.\nThat being said, the ink action is easily spammable during its cooldown. This leads the player to mindlessly click on a house in a loop just to protect it the exact second it refreshes. Finally, the game desperately needs clear timing indicators for the fog's progression."",""originality-rating"":2,""originality-free-response"":""The game lacks creativity, as this type of gameplay has been seen many times before. It strongly resembles the kind of basic Flash games you could easily stumble upon back in 2005. It is extremely poor in terms of novelty, and I see very few, if any, truly original aspects in this game."",""effectiveness-rating"":3,""effectiveness-free-response"":""The game still had a stimulating aspect to it. As a dedicated gamer, I strongly dislike losing, so losing a village felt highly frustrating to me. This specific sense of challenge and difficulty is very appealing to modern players who are tired of overly easy games. However, many elements need to be overhauled for it to truly work.\n\nIn conclusion, actively protecting the zones in real-time was fun and engaging. On the other hand, the poor user interface, the severe lack of visual feedback, and the shallow gameplay loop made the overall experience ultimately unamusing."",""authenticity-rating"":2,""attention-check"":3,""intentionality-rating"":2,""authenticity-intentionality-free-response"":""The game visibly lacks creativity, and it shows; it is completely devoid of authenticity and passion. It is a real-time village protection simulation, but its execution is extremely basic. As I mentioned previously, I feel like I have played this exact type of game hundreds of times on old Flash platforms, which explains my low rating for authenticity.\n\nFurthermore, it is obvious that the developers put very little attention and personal effort into the player's comfort and overall user experience (QoL), which justifies my low score on intentionality as well. It feels like a low-tier game that desperately needs improvements. While it is not the absolute bottom of the barrel in the gaming industry, it requires significantly more polish, refinement, and genuine heart""}","evaluation-claude-5-cartographer","survey","4","1637427","0.0-4.0","69967d911d9f679e547767a2","6987c292780adf01bb926159","69a379b9923a6778b530aea1","","","","","","",""
"94933","","{""concept-creativity-rating"":2,""concept-implementation-rating"":3,""question1"":null}","concept-claude-5-cartographer","survey","5","1732375","0.0-5.0","69967d911d9f679e547767a2","6987c292780adf01bb926159","69a379b9923a6778b530aea1","","","","","","",""
"2609","You have completed your evaluation of the first video game.<br><br>Press any key to proceed to the second game."," ","pre-game-two-message","html-keyboard-response","6","1734985","0.0-6.0","69967d911d9f679e547767a2","6987c292780adf01bb926159","69a379b9923a6778b530aea1","","","","","","",""
"137220","","","game-chat-4-courier","plugin-game-iframe","7","1872204","0.0-7.0","69967d911d9f679e547767a2","6987c292780adf01bb926159","69a379b9923a6778b530aea1","game-complete","completed","{""stage"":""completed"",""detail"":{""mode"":""end"",""delivered"":3,""total"":3,""attemptsLeft"":2,""timeRemaining"":264.46681800000067}}","{""result"":""win"",""timeLeft"":264.46681800000067,""dialTurns"":0,""shadowEchoesUsed"":0,""exposureIncidents"":2}","null","[{""key"":"" "",""event"":""keyup"",""t"":71},{""key"":""Meta"",""event"":""keydown"",""t"":6617},{""key"":""Shift"",""event"":""keydown"",""t"":6825},{""key"":""S"",""event"":""keyup"",""t"":7378},{""key"":""Meta"",""event"":""keyup"",""t"":7468},{""key"":""Shift"",""event"":""keyup"",""t"":7474},{""key"":"" "",""event"":""keydown"",""t"":22296},{""key"":"" "",""event"":""keyup"",""t"":22377},{""key"":"" "",""event"":""keydown"",""t"":27075},{""key"":"" "",""event"":""keyup"",""t"":27222},{""key"":""ArrowLeft"",""event"":""keydown"",""t"":27743},{""key"":""ArrowRight"",""event"":""keydown"",""t"":27901},{""key"":""ArrowLeft"",""event"":""keyup"",""t"":27920},{""key"":""ArrowUp"",""event"":""keydown"",""t"":28010},{""key"":""ArrowRight"",""event"":""keyup"",""t"":28062},{""key"":""ArrowUp"",""event"":""keyup"",""t"":28134},{""key"":"" "",""event"":""keydown"",""t"":34385},{""key"":"" "",""event"":""keyup"",""t"":34551},{""key"":""z"",""event"":""keydown"",""t"":34730},{""key"":""z"",""event"":""keyup"",""t"":34907},{""key"":""ArrowRight"",""event"":""keydown"",""t"":38904},{""key"":""ArrowRight"",""event"":""keyup"",""t"":39176},{""key"":""ArrowDown"",""event"":""keydown"",""t"":39205},{""key"":""ArrowLeft"",""event"":""keydown"",""t"":39250},{""key"":""ArrowDown"",""event"":""keyup"",""t"":39438},{""key"":""ArrowLeft"",""event"":""keyup"",""t"":39520},{""key"":""ArrowRight"",""event"":""keydown"",""t"":39651},{""key"":""ArrowUp"",""event"":""keydown"",""t"":40025},{""key"":""ArrowUp"",""event"":""keydown"",""t"":40533},{""key"":""ArrowUp"",""event"":""keydown"",""t"":40564},{""key"":""ArrowUp"",""event"":""keydown"",""t"":40595},{""key"":""ArrowUp"",""event"":""keydown"",""t"":40625},{""key"":""ArrowUp"",""event"":""keydown"",""t"":40672},{""key"":""ArrowUp"",""event"":""keydown"",""t"":40702},{""key"":""ArrowUp"",""event"":""keydown"",""t"":40734},{""key"":""ArrowUp"",""event"":""keydown"",""t"":40765},{""key"":""ArrowUp"",""event"":""keydown"",""t"":40796},{""key"":""ArrowUp"",""event"":""keydown"",""t"":40827},{""key"":""ArrowUp"",""event"":""keydown"",""t"":40858},{""key"":""ArrowUp"",""event"":""keydown"",""t"":40890},{""key"":""ArrowUp"",""event"":""keydown"",""t"":40921},{""key"":""ArrowUp"",""event"":""keyup"",""t"":40964},{""key"":""ArrowUp"",""event"":""keydown"",""t"":40999},{""key"":""ArrowUp"",""event"":""keyup"",""t"":41497},{""key"":""ArrowRight"",""event"":""keyup"",""t"":41516},{""key"":""ArrowLeft"",""event"":""keydown"",""t"":41680},{""key"":""ArrowDown"",""event"":""keydown"",""t"":42009},{""key"":""ArrowDown"",""event"":""keydown"",""t"":42517},{""key"":""ArrowDown"",""event"":""keydown"",""t"":42549},{""key"":""ArrowDown"",""event"":""keydown"",""t"":42579},{""key"":""ArrowDown"",""event"":""keydown"",""t"":42611},{""key"":""ArrowDown"",""event"":""keydown"",""t"":42643},{""key"":""ArrowDown"",""event"":""keydown"",""t"":42675},{""key"":""ArrowDown"",""event"":""keydown"",""t"":42707},{""key"":""ArrowDown"",""event"":""keydown"",""t"":42754},{""key"":""ArrowDown"",""event"":""keydown"",""t"":42788},{""key"":""ArrowDown"",""event"":""keydown"",""t"":42818},{""key"":""ArrowDown"",""event"":""keydown"",""t"":42850},{""key"":""ArrowDown"",""event"":""keydown"",""t"":42881},{""key"":""ArrowDown"",""event"":""keydown"",""t"":42911},{""key"":""ArrowDown"",""event"":""keydown"",""t"":42942},{""key"":""ArrowDown"",""event"":""keydown"",""t"":42974},{""key"":""ArrowDown"",""event"":""keydown"",""t"":43006},{""key"":""ArrowDown"",""event"":""keydown"",""t"":43037},{""key"":""ArrowLeft"",""event"":""keyup"",""t"":43081},{""key"":""ArrowDown"",""event"":""keyup"",""t"":43125},{""key"":""ArrowLeft"",""event"":""keydown"",""t"":43339},{""key"":""ArrowLeft"",""event"":""keyup"",""t"":43804},{""key"":"" "",""event"":""keydown"",""t"":44560},{""key"":"" "",""event"":""keyup"",""t"":44709},{""key"":""ArrowRight"",""event"":""keydown"",""t"":45477},{""key"":""ArrowRight"",""event"":""keyup"",""t"":45773},{""key"":""ArrowLeft"",""event"":""keydown"",""t"":46201},{""key"":""ArrowLeft"",""event"":""keyup"",""t"":46381},{""key"":""ArrowLeft"",""event"":""keydown"",""t"":46581},{""key"":""ArrowLeft"",""event"":""keyup"",""t"":46718},{""key"":""&"",""event"":""keydown"",""t"":46783},{""key"":""&"",""event"":""keyup"",""t"":46914},{""key"":""ArrowRight"",""event"":""keydown"",""t"":47111},{""key"":""ArrowRight"",""event"":""keydown"",""t"":47620},{""key"":""ArrowRight"",""event"":""keydown"",""t"":47654},{""key"":""ArrowRight"",""event"":""keydown"",""t"":47684},{""key"":""ArrowRight"",""event"":""keydown"",""t"":47716},{""key"":""ArrowRight"",""event"":""keydown"",""t"":47747},{""key"":""ArrowRight"",""event"":""keydown"",""t"":47778},{""key"":""ArrowRight"",""event"":""keyup"",""t"":47804},{""key"":""ArrowUp"",""event"":""keydown"",""t"":47850},{""key"":""ArrowUp"",""event"":""keyup"",""t"":47998},{""key"":""ArrowUp"",""event"":""keydown"",""t"":49797},{""key"":""ArrowUp"",""event"":""keyup"",""t"":50171},{""key"":""ArrowDown"",""event"":""keydown"",""t"":51116},{""key"":""ArrowDown"",""event"":""keyup"",""t"":51540},{""key"":""ArrowUp"",""event"":""keydown"",""t"":51899},{""key"":""ArrowUp"",""event"":""keydown"",""t"":52414},{""key"":""ArrowUp"",""event"":""keydown"",""t"":52444},{""key"":""ArrowUp"",""event"":""keydown"",""t"":52476},{""key"":""ArrowUp"",""event"":""keydown"",""t"":52508},{""key"":""ArrowUp"",""event"":""keydown"",""t"":52539},{""key"":""ArrowUp"",""event"":""keydown"",""t"":52571},{""key"":""ArrowUp"",""event"":""keydown"",""t"":52602},{""key"":""ArrowUp"",""event"":""keydown"",""t"":52633},{""key"":""ArrowUp"",""event"":""keydown"",""t"":52665},{""key"":""ArrowUp"",""event"":""keyup"",""t"":52696},{""key"":""ArrowRight"",""event"":""keydown"",""t"":54854},{""key"":""ArrowRight"",""event"":""keyup"",""t"":55072},{""key"":""ArrowUp"",""event"":""keydown"",""t"":55177},{""key"":""ArrowUp"",""event"":""keyup"",""t"":55298},{""key"":""ArrowRight"",""event"":""keydown"",""t"":55447},{""key"":""ArrowRight"",""event"":""keyup"",""t"":55721},{""key"":""ArrowRight"",""event"":""keydown"",""t"":56659},{""key"":""ArrowRight"",""event"":""keyup"",""t"":56757},{""key"":""ArrowUp"",""event"":""keydown"",""t"":56888},{""key"":""ArrowRight"",""event"":""keydown"",""t"":57045},{""key"":""ArrowUp"",""event"":""keyup"",""t"":57103},{""key"":""ArrowUp"",""event"":""keydown"",""t"":57410},{""key"":""ArrowUp"",""event"":""keydown"",""t"":57924},{""key"":""ArrowUp"",""event"":""keydown"",""t"":57954},{""key"":""ArrowUp"",""event"":""keydown"",""t"":57984},{""key"":""ArrowUp"",""event"":""keydown"",""t"":58015},{""key"":""ArrowUp"",""event"":""keydown"",""t"":58047},{""key"":""ArrowUp"",""event"":""keydown"",""t"":58078},{""key"":""ArrowUp"",""event"":""keydown"",""t"":58109},{""key"":""ArrowUp"",""event"":""keydown"",""t"":58141},{""key"":""ArrowUp"",""event"":""keydown"",""t"":58188},{""key"":""ArrowUp"",""event"":""keydown"",""t"":58219},{""key"":""ArrowUp"",""event"":""keydown"",""t"":58249},{""key"":""ArrowUp"",""event"":""keydown"",""t"":58282},{""key"":""ArrowUp"",""event"":""keydown"",""t"":58312},{""key"":""ArrowUp"",""event"":""keydown"",""t"":58344},{""key"":""ArrowUp"",""event"":""keydown"",""t"":58375},{""key"":""ArrowUp"",""event"":""keydown"",""t"":58406},{""key"":""ArrowUp"",""event"":""keydown"",""t"":58452},{""key"":""ArrowUp"",""event"":""keydown"",""t"":58483},{""key"":""ArrowUp"",""event"":""keydown"",""t"":58513},{""key"":""ArrowUp"",""event"":""keydown"",""t"":58546},{""key"":""ArrowRight"",""event"":""keyup"",""t"":58570},{""key"":""ArrowUp"",""event"":""keyup"",""t"":58755},{""key"":""ArrowUp"",""event"":""keydown"",""t"":59433},{""key"":""ArrowUp"",""event"":""keyup"",""t"":59635},{""key"":""ArrowUp"",""event"":""keydown"",""t"":59857},{""key"":""ArrowUp"",""event"":""keyup"",""t"":59973},{""key"":""ArrowUp"",""event"":""keydown"",""t"":60132},{""key"":""ArrowUp"",""event"":""keyup"",""t"":60271},{""key"":""ArrowUp"",""event"":""keydown"",""t"":60437},{""key"":""ArrowUp"",""event"":""keyup"",""t"":60593},{""key"":""ArrowUp"",""event"":""keydown"",""t"":61085},{""key"":""ArrowUp"",""event"":""keyup"",""t"":61195},{""key"":""ArrowUp"",""event"":""keydown"",""t"":61295},{""key"":""ArrowUp"",""event"":""keyup"",""t"":61303},{""key"":""ArrowDown"",""event"":""keydown"",""t"":61313},{""key"":""ArrowDown"",""event"":""keyup"",""t"":61624},{""key"":""ArrowUp"",""event"":""keydown"",""t"":61736},{""key"":""ArrowUp"",""event"":""keyup"",""t"":62166},{""key"":""ArrowDown"",""event"":""keydown"",""t"":62468},{""key"":""ArrowDown"",""event"":""keyup"",""t"":62878},{""key"":""ArrowUp"",""event"":""keydown"",""t"":63060},{""key"":""ArrowUp"",""event"":""keyup"",""t"":63385},{""key"":""ArrowDown"",""event"":""keydown"",""t"":63714},{""key"":""ArrowDown"",""event"":""keyup"",""t"":64004},{""key"":""ArrowUp"",""event"":""keydown"",""t"":64485},{""key"":""ArrowUp"",""event"":""keyup"",""t"":64597},{""key"":""ArrowUp"",""event"":""keydown"",""t"":64765},{""key"":""ArrowLeft"",""event"":""keydown"",""t"":64890},{""key"":""ArrowLeft"",""event"":""keyup"",""t"":65183},{""key"":""ArrowUp"",""event"":""keyup"",""t"":65382},{""key"":""ArrowDown"",""event"":""keydown"",""t"":65650},{""key"":""ArrowRight"",""event"":""keydown"",""t"":65873},{""key"":""ArrowDown"",""event"":""keyup"",""t"":66118},{""key"":""ArrowRight"",""event"":""keyup"",""t"":66194},{""key"":""ArrowUp"",""event"":""keydown"",""t"":66534},{""key"":""ArrowUp"",""event"":""keyup"",""t"":66691},{""key"":""ArrowDown"",""event"":""keydown"",""t"":66897},{""key"":""ArrowDown"",""event"":""keyup"",""t"":67383},{""key"":""ArrowRight"",""event"":""keydown"",""t"":68776},{""key"":""ArrowRight"",""event"":""keyup"",""t"":68896},{""key"":""ArrowRight"",""event"":""keydown"",""t"":69216},{""key"":""ArrowUp"",""event"":""keydown"",""t"":69468},{""key"":""ArrowUp"",""event"":""keyup"",""t"":69643},{""key"":""ArrowRight"",""event"":""keyup"",""t"":69737},{""key"":""ArrowRight"",""event"":""keydown"",""t"":72111},{""key"":""ArrowUp"",""event"":""keydown"",""t"":72244},{""key"":""ArrowUp"",""event"":""keydown"",""t"":72759},{""key"":""ArrowUp"",""event"":""keydown"",""t"":72790},{""key"":""ArrowUp"",""event"":""keydown"",""t"":72821},{""key"":""ArrowUp"",""event"":""keydown"",""t"":72853},{""key"":""ArrowUp"",""event"":""keydown"",""t"":72884},{""key"":""ArrowUp"",""event"":""keydown"",""t"":72915},{""key"":""ArrowUp"",""event"":""keydown"",""t"":72947},{""key"":""ArrowUp"",""event"":""keydown"",""t"":72979},{""key"":""ArrowUp"",""event"":""keydown"",""t"":73009},{""key"":""ArrowUp"",""event"":""keydown"",""t"":73040},{""key"":""ArrowUp"",""event"":""keydown"",""t"":73088},{""key"":""ArrowUp"",""event"":""keydown"",""t"":73119},{""key"":""ArrowUp"",""event"":""keydown"",""t"":73149},{""key"":""ArrowUp"",""event"":""keydown"",""t"":73180},{""key"":""ArrowUp"",""event"":""keydown"",""t"":73212},{""key"":""ArrowUp"",""event"":""keydown"",""t"":73243},{""key"":""ArrowUp"",""event"":""keydown"",""t"":73274},{""key"":""ArrowUp"",""event"":""keydown"",""t"":73306},{""key"":""ArrowUp"",""event"":""keydown"",""t"":73338},{""key"":""ArrowUp"",""event"":""keydown"",""t"":73371},{""key"":""ArrowUp"",""event"":""keydown"",""t"":73418},{""key"":""ArrowUp"",""event"":""keydown"",""t"":73448},{""key"":""ArrowUp"",""event"":""keydown"",""t"":73478},{""key"":""ArrowUp"",""event"":""keydown"",""t"":73509},{""key"":""ArrowUp"",""event"":""keydown"",""t"":73541},{""key"":""ArrowUp"",""event"":""keydown"",""t"":73573},{""key"":""ArrowUp"",""event"":""keydown"",""t"":73604},{""key"":""ArrowUp"",""event"":""keydown"",""t"":73636},{""key"":""ArrowUp"",""event"":""keydown"",""t"":73668},{""key"":""ArrowUp"",""event"":""keydown"",""t"":73715},{""key"":""ArrowRight"",""event"":""keyup"",""t"":73736},{""key"":""ArrowUp"",""event"":""keydown"",""t"":74248},{""key"":""ArrowLeft"",""event"":""keydown"",""t"":74264},{""key"":""ArrowLeft"",""event"":""keyup"",""t"":74365},{""key"":""ArrowUp"",""event"":""keyup"",""t"":74486},{""key"":""ArrowLeft"",""event"":""keydown"",""t"":75157},{""key"":""ArrowUp"",""event"":""keydown"",""t"":75411},{""key"":""ArrowLeft"",""event"":""keyup"",""t"":75648},{""key"":""ArrowUp"",""event"":""keydown"",""t"":76163},{""key"":""ArrowUp"",""event"":""keydown"",""t"":76195},{""key"":""ArrowUp"",""event"":""keydown"",""t"":76226},{""key"":""ArrowUp"",""event"":""keydown"",""t"":76257},{""key"":""ArrowUp"",""event"":""keydown"",""t"":76290},{""key"":""ArrowUp"",""event"":""keydown"",""t"":76321},{""key"":""ArrowUp"",""event"":""keydown"",""t"":76351},{""key"":""ArrowUp"",""event"":""keydown"",""t"":76383},{""key"":""ArrowRight"",""event"":""keydown"",""t"":76410},{""key"":""ArrowUp"",""event"":""keyup"",""t"":76526},{""key"":""ArrowUp"",""event"":""keydown"",""t"":76770},{""key"":""ArrowUp"",""event"":""keyup"",""t"":76857},{""key"":""ArrowUp"",""event"":""keydown"",""t"":77116},{""key"":""ArrowUp"",""event"":""keyup"",""t"":77194},{""key"":""ArrowRight"",""event"":""keyup"",""t"":77206},{""key"":""ArrowRight"",""event"":""keydown"",""t"":77694},{""key"":""ArrowRight"",""event"":""keyup"",""t"":77836},{""key"":""ArrowRight"",""event"":""keydown"",""t"":78033},{""key"":""ArrowDown"",""event"":""keydown"",""t"":78225},{""key"":""ArrowDown"",""event"":""keydown"",""t"":78727},{""key"":""ArrowDown"",""event"":""keydown"",""t"":78771},{""key"":""ArrowDown"",""event"":""keydown"",""t"":78803},{""key"":""ArrowDown"",""event"":""keydown"",""t"":78834},{""key"":""ArrowDown"",""event"":""keydown"",""t"":78865},{""key"":""ArrowDown"",""event"":""keydown"",""t"":78896},{""key"":""ArrowDown"",""event"":""keydown"",""t"":78928},{""key"":""ArrowDown"",""event"":""keydown"",""t"":78959},{""key"":""ArrowDown"",""event"":""keydown"",""t"":78991},{""key"":""ArrowDown"",""event"":""keydown"",""t"":79023},{""key"":""ArrowDown"",""event"":""keydown"",""t"":79055},{""key"":""ArrowDown"",""event"":""keydown"",""t"":79087},{""key"":""ArrowDown"",""event"":""keydown"",""t"":79120},{""key"":""ArrowDown"",""event"":""keydown"",""t"":79167},{""key"":""ArrowDown"",""event"":""keydown"",""t"":79198},{""key"":""ArrowDown"",""event"":""keydown"",""t"":79229},{""key"":""ArrowDown"",""event"":""keydown"",""t"":79260},{""key"":""ArrowDown"",""event"":""keydown"",""t"":79292},{""key"":""ArrowDown"",""event"":""keydown"",""t"":79324},{""key"":""ArrowDown"",""event"":""keydown"",""t"":79353},{""key"":""ArrowDown"",""event"":""keydown"",""t"":79386},{""key"":""ArrowDown"",""event"":""keyup"",""t"":79391},{""key"":""ArrowDown"",""event"":""keydown"",""t"":79770},{""key"":""ArrowDown"",""event"":""keyup"",""t"":79995},{""key"":""ArrowRight"",""event"":""keyup"",""t"":80169},{""key"":""ArrowRight"",""event"":""keydown"",""t"":80310},{""key"":""ArrowRight"",""event"":""keyup"",""t"":80459},{""key"":""ArrowRight"",""event"":""keydown"",""t"":80715},{""key"":""ArrowRight"",""event"":""keyup"",""t"":80765},{""key"":""ArrowDown"",""event"":""keydown"",""t"":82057},{""key"":""ArrowLeft"",""event"":""keydown"",""t"":82173},{""key"":""ArrowLeft"",""event"":""keyup"",""t"":82320},{""key"":""ArrowRight"",""event"":""keydown"",""t"":82602},{""key"":""ArrowRight"",""event"":""keyup"",""t"":82722},{""key"":""ArrowRight"",""event"":""keydown"",""t"":82998},{""key"":""ArrowDown"",""event"":""keyup"",""t"":83014},{""key"":""ArrowUp"",""event"":""keydown"",""t"":83233},{""key"":""ArrowRight"",""event"":""keyup"",""t"":83286},{""key"":""ArrowLeft"",""event"":""keydown"",""t"":83386},{""key"":""ArrowUp"",""event"":""keyup"",""t"":83435},{""key"":""ArrowLeft"",""event"":""keyup"",""t"":83715},{""key"":""ArrowLeft"",""event"":""keydown"",""t"":83931},{""key"":""ArrowLeft"",""event"":""keyup"",""t"":84001},{""key"":""ArrowRight"",""event"":""keydown"",""t"":84531},{""key"":""ArrowDown"",""event"":""keydown"",""t"":84988},{""key"":""ArrowDown"",""event"":""keydown"",""t"":85492},{""key"":""ArrowDown"",""event"":""keyup"",""t"":85504},{""key"":""ArrowDown"",""event"":""keydown"",""t"":85853},{""key"":""ArrowRight"",""event"":""keyup"",""t"":85913},{""key"":""ArrowDown"",""event"":""keyup"",""t"":86024},{""key"":""ArrowLeft"",""event"":""keydown"",""t"":86359},{""key"":""ArrowLeft"",""event"":""keyup"",""t"":86435},{""key"":""ArrowRight"",""event"":""keydown"",""t"":86540},{""key"":""ArrowRight"",""event"":""keydown"",""t"":87044},{""key"":""ArrowRight"",""event"":""keydown"",""t"":87075},{""key"":""ArrowRight"",""event"":""keydown"",""t"":87108},{""key"":""ArrowRight"",""event"":""keydown"",""t"":87138},{""key"":""ArrowRight"",""event"":""keydown"",""t"":87184},{""key"":""ArrowDown"",""event"":""keydown"",""t"":87187},{""key"":""ArrowDown"",""event"":""keyup"",""t"":87352},{""key"":""ArrowRight"",""event"":""keyup"",""t"":87370},{""key"":""ArrowRight"",""event"":""keydown"",""t"":88594},{""key"":""ArrowUp"",""event"":""keydown"",""t"":88821},{""key"":""ArrowUp"",""event"":""keyup"",""t"":88980},{""key"":""ArrowUp"",""event"":""keydown"",""t"":89185},{""key"":""ArrowUp"",""event"":""keyup"",""t"":89367},{""key"":""ArrowRight"",""event"":""keyup"",""t"":89381},{""key"":""ArrowUp"",""event"":""keydown"",""t"":89572},{""key"":""ArrowUp"",""event"":""keyup"",""t"":89668},{""key"":""ArrowRight"",""event"":""keydown"",""t"":89851},{""key"":""ArrowRight"",""event"":""keyup"",""t"":90000},{""key"":""ArrowUp"",""event"":""keydown"",""t"":90159},{""key"":""ArrowUp"",""event"":""keyup"",""t"":90227},{""key"":""ArrowRight"",""event"":""keydown"",""t"":90507},{""key"":""ArrowRight"",""event"":""keyup"",""t"":90573},{""key"":""ArrowRight"",""event"":""keydown"",""t"":90867},{""key"":""ArrowRight"",""event"":""keyup"",""t"":90975},{""key"":""ArrowRight"",""event"":""keydown"",""t"":91195},{""key"":""ArrowRight"",""event"":""keyup"",""t"":91286},{""key"":""ArrowUp"",""event"":""keydown"",""t"":91703},{""key"":""ArrowUp"",""event"":""keyup"",""t"":91762},{""key"":""ArrowLeft"",""event"":""keydown"",""t"":92996},{""key"":""ArrowLeft"",""event"":""keyup"",""t"":93135},{""key"":""ArrowLeft"",""event"":""keydown"",""t"":93282},{""key"":""ArrowLeft"",""event"":""keyup"",""t"":93413},{""key"":""ArrowLeft"",""event"":""keydown"",""t"":93517},{""key"":""ArrowUp"",""event"":""keydown"",""t"":93643},{""key"":""ArrowLeft"",""event"":""keyup"",""t"":93799},{""key"":""ArrowLeft"",""event"":""keydown"",""t"":94222},{""key"":""ArrowLeft"",""event"":""keyup"",""t"":94374},{""key"":""ArrowLeft"",""event"":""keydown"",""t"":94482},{""key"":""ArrowLeft"",""event"":""keydown"",""t"":94985},{""key"":""ArrowLeft"",""event"":""keyup"",""t"":95008},{""key"":""ArrowRight"",""event"":""keydown"",""t"":95314},{""key"":""ArrowRight"",""event"":""keyup"",""t"":95450},{""key"":""ArrowRight"",""event"":""keydown"",""t"":95725},{""key"":""ArrowUp"",""event"":""keyup"",""t"":96010},{""key"":""ArrowDown"",""event"":""keydown"",""t"":96204},{""key"":""ArrowDown"",""event"":""keyup"",""t"":96337},{""key"":""ArrowRight"",""event"":""keyup"",""t"":96781},{""key"":""ArrowRight"",""event"":""keydown"",""t"":100490},{""key"":""ArrowUp"",""event"":""keydown"",""t"":100721},{""key"":""ArrowUp"",""event"":""keyup"",""t"":100912},{""key"":""ArrowRight"",""event"":""keyup"",""t"":101043},{""key"":""ArrowRight"",""event"":""keydown"",""t"":101210},{""key"":""ArrowUp"",""event"":""keydown"",""t"":101284},{""key"":""ArrowRight"",""event"":""keyup"",""t"":101312},{""key"":""ArrowUp"",""event"":""keyup"",""t"":101386},{""key"":""ArrowRight"",""event"":""keydown"",""t"":101541},{""key"":""ArrowRight"",""event"":""keyup"",""t"":101630},{""key"":""ArrowRight"",""event"":""keydown"",""t"":102011},{""key"":""ArrowRight"",""event"":""keyup"",""t"":102067},{""key"":""ArrowUp"",""event"":""keydown"",""t"":102293},{""key"":""ArrowRight"",""event"":""keydown"",""t"":102341},{""key"":""ArrowRight"",""event"":""keydown"",""t"":102852},{""key"":""ArrowRight"",""event"":""keydown"",""t"":102883},{""key"":""ArrowRight"",""event"":""keydown"",""t"":102916},{""key"":""ArrowRight"",""event"":""keydown"",""t"":102946},{""key"":""ArrowRight"",""event"":""keydown"",""t"":102978},{""key"":""ArrowRight"",""event"":""keydown"",""t"":103010},{""key"":""ArrowRight"",""event"":""keydown"",""t"":103041},{""key"":""ArrowRight"",""event"":""keydown"",""t"":103071},{""key"":""ArrowRight"",""event"":""keydown"",""t"":103118},{""key"":""ArrowRight"",""event"":""keydown"",""t"":103149},{""key"":""ArrowRight"",""event"":""keydown"",""t"":103180},{""key"":""ArrowRight"",""event"":""keydown"",""t"":103211},{""key"":""ArrowRight"",""event"":""keydown"",""t"":103243},{""key"":""ArrowRight"",""event"":""keydown"",""t"":103275},{""key"":""ArrowRight"",""event"":""keydown"",""t"":103305},{""key"":""ArrowRight"",""event"":""keydown"",""t"":103336},{""key"":""ArrowRight"",""event"":""keydown"",""t"":103368},{""key"":""ArrowRight"",""event"":""keydown"",""t"":103414},{""key"":""ArrowRight"",""event"":""keydown"",""t"":103445},{""key"":""ArrowRight"",""event"":""keydown"",""t"":103475},{""key"":""ArrowRight"",""event"":""keydown"",""t"":103506},{""key"":""ArrowRight"",""event"":""keydown"",""t"":103538},{""key"":""ArrowRight"",""event"":""keydown"",""t"":103570},{""key"":""ArrowRight"",""event"":""keydown"",""t"":103600},{""key"":""ArrowRight"",""event"":""keydown"",""t"":103632},{""key"":""ArrowRight"",""event"":""keydown"",""t"":103678},{""key"":""ArrowRight"",""event"":""keydown"",""t"":103709},{""key"":""ArrowRight"",""event"":""keyup"",""t"":103719},{""key"":""ArrowUp"",""event"":""keyup"",""t"":103940},{""key"":""ArrowDown"",""event"":""keydown"",""t"":104351},{""key"":""ArrowDown"",""event"":""keyup"",""t"":104403},{""key"":""ArrowRight"",""event"":""keydown"",""t"":104589},{""key"":""ArrowRight"",""event"":""keyup"",""t"":104667},{""key"":""ArrowDown"",""event"":""keydown"",""t"":105047},{""key"":""ArrowDown"",""event"":""keyup"",""t"":105124},{""key"":""ArrowLeft"",""event"":""keydown"",""t"":105338},{""key"":""ArrowLeft"",""event"":""keyup"",""t"":105383},{""key"":""ArrowUp"",""event"":""keydown"",""t"":105763},{""key"":""ArrowUp"",""event"":""keyup"",""t"":105847},{""key"":""ArrowUp"",""event"":""keydown"",""t"":106367},{""key"":""ArrowLeft"",""event"":""keydown"",""t"":106494},{""key"":""ArrowLeft"",""event"":""keyup"",""t"":106999},{""key"":""ArrowLeft"",""event"":""keydown"",""t"":107177},{""key"":""ArrowLeft"",""event"":""keyup"",""t"":107250},{""key"":""ArrowRight"",""event"":""keydown"",""t"":107827},{""key"":""ArrowUp"",""event"":""keyup"",""t"":108102},{""key"":""ArrowUp"",""event"":""keydown"",""t"":108306},{""key"":""ArrowUp"",""event"":""keyup"",""t"":108525},{""key"":""ArrowRight"",""event"":""keyup"",""t"":108576},{""key"":""ArrowLeft"",""event"":""keydown"",""t"":108789},{""key"":""ArrowLeft"",""event"":""keyup"",""t"":109000},{""key"":""ArrowRight"",""event"":""keydown"",""t"":109143},{""key"":""ArrowRight"",""event"":""keyup"",""t"":109382},{""key"":""ArrowRight"",""event"":""keydown"",""t"":109556},{""key"":""ArrowRight"",""event"":""keyup"",""t"":109718},{""key"":""ArrowRight"",""event"":""keydown"",""t"":109877},{""key"":""ArrowRight"",""event"":""keyup"",""t"":109997},{""key"":""ArrowDown"",""event"":""keydown"",""t"":110168},{""key"":""ArrowDown"",""event"":""keyup"",""t"":110264},{""key"":""ArrowRight"",""event"":""keydown"",""t"":110443},{""key"":""ArrowRight"",""event"":""keyup"",""t"":110550},{""key"":""ArrowDown"",""event"":""keydown"",""t"":110696},{""key"":""ArrowRight"",""event"":""keydown"",""t"":110822},{""key"":""ArrowRight"",""event"":""keydown"",""t"":111330},{""key"":""ArrowRight"",""event"":""keydown"",""t"":111360},{""key"":""ArrowRight"",""event"":""keydown"",""t"":111392},{""key"":""ArrowRight"",""event"":""keydown"",""t"":111423},{""key"":""ArrowRight"",""event"":""keydown"",""t"":111454},{""key"":""ArrowRight"",""event"":""keydown"",""t"":111501},{""key"":""ArrowRight"",""event"":""keydown"",""t"":111532},{""key"":""ArrowRight"",""event"":""keydown"",""t"":111563},{""key"":""ArrowRight"",""event"":""keydown"",""t"":111593},{""key"":""ArrowRight"",""event"":""keydown"",""t"":111625},{""key"":""ArrowRight"",""event"":""keydown"",""t"":111657},{""key"":""ArrowRight"",""event"":""keydown"",""t"":111688},{""key"":""ArrowRight"",""event"":""keydown"",""t"":111720},{""key"":""ArrowRight"",""event"":""keydown"",""t"":111751},{""key"":""ArrowDown"",""event"":""keyup"",""t"":111772},{""key"":""ArrowDown"",""event"":""keydown"",""t"":112109},{""key"":""ArrowDown"",""event"":""keyup"",""t"":112230},{""key"":""ArrowRight"",""event"":""keyup"",""t"":112671},{""key"":""ArrowRight"",""event"":""keydown"",""t"":112948},{""key"":""ArrowRight"",""event"":""keyup"",""t"":113041},{""key"":""ArrowRight"",""event"":""keydown"",""t"":113422},{""key"":""ArrowRight"",""event"":""keyup"",""t"":113482},{""key"":""ArrowDown"",""event"":""keydown"",""t"":114030},{""key"":""ArrowLeft"",""event"":""keydown"",""t"":114349},{""key"":""ArrowLeft"",""event"":""keyup"",""t"":114528},{""key"":""ArrowDown"",""event"":""keyup"",""t"":114541},{""key"":""ArrowDown"",""event"":""keydown"",""t"":115076},{""key"":""ArrowDown"",""event"":""keyup"",""t"":115243},{""key"":""ArrowDown"",""event"":""keydown"",""t"":115599},{""key"":""ArrowDown"",""event"":""keyup"",""t"":115669},{""key"":""ArrowRight"",""event"":""keydown"",""t"":115916},{""key"":""ArrowDown"",""event"":""keydown"",""t"":115946},{""key"":""ArrowDown"",""event"":""keyup"",""t"":116381},{""key"":""ArrowDown"",""event"":""keydown"",""t"":116580},{""key"":""ArrowDown"",""event"":""keyup"",""t"":116892},{""key"":""ArrowRight"",""event"":""keyup"",""t"":117261},{""key"":""ArrowDown"",""event"":""keydown"",""t"":117590},{""key"":""ArrowDown"",""event"":""keyup"",""t"":117691},{""key"":""ArrowRight"",""event"":""keydown"",""t"":118827},{""key"":""ArrowRight"",""event"":""keydown"",""t"":119336},{""key"":""ArrowRight"",""event"":""keydown"",""t"":119367},{""key"":""ArrowRight"",""event"":""keydown"",""t"":119398},{""key"":""ArrowRight"",""event"":""keydown"",""t"":119430},{""key"":""ArrowUp"",""event"":""keydown"",""t"":119433},{""key"":""ArrowUp"",""event"":""keyup"",""t"":119566},{""key"":""ArrowUp"",""event"":""keydown"",""t"":119804},{""key"":""ArrowUp"",""event"":""keyup"",""t"":119971},{""key"":""ArrowUp"",""event"":""keydown"",""t"":120234},{""key"":""ArrowUp"",""event"":""keyup"",""t"":120358},{""key"":""ArrowUp"",""event"":""keydown"",""t"":120505},{""key"":""ArrowUp"",""event"":""keyup"",""t"":120604},{""key"":""ArrowRight"",""event"":""keyup"",""t"":120910},{""key"":""ArrowRight"",""event"":""keydown"",""t"":121133},{""key"":""ArrowRight"",""event"":""keyup"",""t"":121364},{""key"":""ArrowRight"",""event"":""keydown"",""t"":121906},{""key"":""ArrowRight"",""event"":""keyup"",""t"":121961},{""key"":""ArrowUp"",""event"":""keydown"",""t"":122712},{""key"":""ArrowUp"",""event"":""keyup"",""t"":122757},{""key"":""ArrowDown"",""event"":""keydown"",""t"":123299},{""key"":""ArrowDown"",""event"":""keyup"",""t"":123392},{""key"":""ArrowLeft"",""event"":""keydown"",""t"":123903},{""key"":""ArrowLeft"",""event"":""keyup"",""t"":123963},{""key"":""ArrowLeft"",""event"":""keydown"",""t"":124146},{""key"":""ArrowLeft"",""event"":""keyup"",""t"":124232},{""key"":""ArrowUp"",""event"":""keydown"",""t"":124407},{""key"":""ArrowUp"",""event"":""keyup"",""t"":124445},{""key"":""ArrowRight"",""event"":""keydown"",""t"":124826},{""key"":""ArrowRight"",""event"":""keyup"",""t"":124907},{""key"":""ArrowRight"",""event"":""keydown"",""t"":125086},{""key"":""ArrowRight"",""event"":""keyup"",""t"":125113},{""key"":""ArrowUp"",""event"":""keydown"",""t"":126862},{""key"":""ArrowUp"",""event"":""keyup"",""t"":127327},{""key"":""ArrowRight"",""event"":""keydown"",""t"":127514},{""key"":""ArrowRight"",""event"":""keyup"",""t"":127586},{""key"":""ArrowRight"",""event"":""keydown"",""t"":127642},{""key"":""ArrowRight"",""event"":""keyup"",""t"":127743},{""key"":""ArrowDown"",""event"":""keydown"",""t"":127923},{""key"":""ArrowLeft"",""event"":""keydown"",""t"":128023},{""key"":""ArrowLeft"",""event"":""keyup"",""t"":128450},{""key"":""ArrowDown"",""event"":""keyup"",""t"":128471},{""key"":""ArrowDown"",""event"":""keydown"",""t"":128675},{""key"":""ArrowDown"",""event"":""keyup"",""t"":128787},{""key"":""ArrowUp"",""event"":""keydown"",""t"":129258},{""key"":""ArrowUp"",""event"":""keyup"",""t"":129321},{""key"":""ArrowRight"",""event"":""keydown"",""t"":129915},{""key"":""ArrowRight"",""event"":""keyup"",""t"":129982},{""key"":""ArrowRight"",""event"":""keydown"",""t"":130459},{""key"":""ArrowRight"",""event"":""keyup"",""t"":130525},{""key"":""ArrowUp"",""event"":""keydown"",""t"":131977},{""key"":""ArrowUp"",""event"":""keydown"",""t"":132487},{""key"":""ArrowUp"",""event"":""keydown"",""t"":132518},{""key"":""ArrowUp"",""event"":""keydown"",""t"":132549},{""key"":""ArrowUp"",""event"":""keydown"",""t"":132580},{""key"":""ArrowUp"",""event"":""keydown"",""t"":132612},{""key"":""ArrowUp"",""event"":""keydown"",""t"":132658},{""key"":""ArrowUp"",""event"":""keydown"",""t"":132690},{""key"":""ArrowLeft"",""event"":""keydown"",""t"":132691},{""key"":""ArrowLeft"",""event"":""keyup"",""t"":132876},{""key"":""ArrowLeft"",""event"":""keydown"",""t"":133009},{""key"":""ArrowLeft"",""event"":""keyup"",""t"":133109},{""key"":""ArrowLeft"",""event"":""keydown"",""t"":133238},{""key"":""ArrowLeft"",""event"":""keyup"",""t"":133521},{""key"":""ArrowLeft"",""event"":""keydown"",""t"":133611},{""key"":""ArrowLeft"",""event"":""keyup"",""t"":133719},{""key"":""ArrowLeft"",""event"":""keydown"",""t"":133991},{""key"":""ArrowLeft"",""event"":""keyup"",""t"":134086},{""key"":""ArrowUp"",""event"":""keyup"",""t"":134120},{""key"":""ArrowUp"",""event"":""keydown"",""t"":134344},{""key"":""ArrowRight"",""event"":""keydown"",""t"":134376},{""key"":""ArrowUp"",""event"":""keyup"",""t"":134386},{""key"":""ArrowRight"",""event"":""keyup"",""t"":134504},{""key"":""ArrowLeft"",""event"":""keydown"",""t"":134619},{""key"":""ArrowUp"",""event"":""keydown"",""t"":134628},{""key"":""ArrowUp"",""event"":""keyup"",""t"":134668},{""key"":""ArrowLeft"",""event"":""keyup"",""t"":134952}]","[]"
"911970","","{""creativity-rating"":2,""creativity-free-response"":""This title relies heavily on classic Flash-era stealth mechanics, which makes the overall game lack true creativity. I have seen this exact formula numerous times before, both in 2D and 3D formats.\n\nHowever, if I had to point out one genuinely creative element, it would be the mechanic where staying in absolute darkness for too long results in a failure. Beyond that single aspect, the concept remains very basic."",""originality-rating"":2,""originality-free-response"":""The game is highly unoriginal overall. The segments featuring moving lights that must be avoided and basic switches to activate are severely lacking in originality; it is a very cliché and overused formula.\n\nHowever, the specific mechanic where the player fails if they stay in the absolute darkness for too long is genuinely original. This is a rare concept in the stealth genre, where players can typically hide safely in the shadows indefinitely.\n\nUltimately, the game offered very few surprises, with the sole exception being this specific threat of dying from the darkness itself."",""effectiveness-rating"":3,""effectiveness-free-response"":""From my perspective, the game was okay and felt like an improvement over the previous title. It was slightly more stimulating as it utilizes concepts like trajectory optimization and precise timing.\n\nRegarding what didn't work well: the visual boundaries of the darkness are very poorly defined. If even a single pixel of the player's hitbox touches the dark zone, it registers as a failure, which feels unfair and frustrating. Furthermore, the core gameplay is somewhat bland, and the moving lights have patterns that are too simplistic to convey a genuine sense of danger.\n\nHowever, the final switch mechanic worked quite well. It was effectively guarded by a large light halo. Although the halo's movement was cyclic and predictable, it required strict timing to access the switch without being devoured by the absolute darkness."",""attention-check"":3,""authenticity-rating"":2,""intentionality-rating"":2,""authenticity-intentionality-free-response"":""Overall, the game feels heavily recycled. In old-school stealth games, there were already countless mechanics exactly like this where the sole objective was to avoid the light and move from point A to point B.\n\nThe experience is highly unstimulating because it gives off a very basic 'Flash game' vibe. Consequently, it completely fails to reflect any genuine developer intentionality or a sincere effort to create an appealing game. Due to the overall poor quality and the extreme shallowness of the gameplay loop, it feels lifeless. Ultimately, the only concept genuinely worth keeping and expanding upon is the mechanic of dying if you stay in the darkness for too long""}","evaluation-chat-4-courier","survey","8","2784199","0.0-8.0","69967d911d9f679e547767a2","6987c292780adf01bb926159","69a379b9923a6778b530aea1","","","","","","",""
"69371","","{""concept-creativity-rating"":2,""concept-implementation-rating"":3,""question1"":null}","concept-chat-4-courier","survey","9","2853582","0.0-9.0","69967d911d9f679e547767a2","6987c292780adf01bb926159","69a379b9923a6778b530aea1","","","","","","",""
"2903","You have completed your evaluation of the second video game.<br><br>Press any key to proceed to the final game."," ","pre-game-three-message","html-keyboard-response","10","2856485","0.0-10.0","69967d911d9f679e547767a2","6987c292780adf01bb926159","69a379b9923a6778b530aea1","","","","","","",""
"690076","","","game-chat-2-murmuration","plugin-game-iframe","11","3546563","0.0-11.0","69967d911d9f679e547767a2","6987c292780adf01bb926159","69a379b9923a6778b530aea1","game-complete","ending","{""stage"":""ending"",""detail"":{""segmentIndex"":3,""gameState"":""ENDING"",""gateState"":{""gate1Open"":true,""gate2Open"":true,""gate3Open"":true,""gate1Count"":25,""gate2Hold"":0.816588000000012,""gate3Hold"":1.500190000000002}}}","{""result"":""win"",""birdsAlive"":36,""timeRemaining"":138.89976000000073}","null","[{""key"":"" "",""event"":""keyup"",""t"":55},{""key"":"" "",""event"":""keydown"",""t"":11716},{""key"":"" "",""event"":""keyup"",""t"":11815},{""key"":""ArrowLeft"",""event"":""keydown"",""t"":13908},{""key"":""ArrowLeft"",""event"":""keyup"",""t"":14194},{""key"":""ArrowRight"",""event"":""keydown"",""t"":14293},{""key"":""ArrowRight"",""event"":""keyup"",""t"":14445},{""key"":""r"",""event"":""keydown"",""t"":111160},{""key"":""r"",""event"":""keyup"",""t"":111227},{""key"":"" "",""event"":""keydown"",""t"":113155},{""key"":"" "",""event"":""keyup"",""t"":113266},{""key"":""r"",""event"":""keydown"",""t"":207787},{""key"":""r"",""event"":""keyup"",""t"":207897},{""key"":"" "",""event"":""keydown"",""t"":209535},{""key"":"" "",""event"":""keyup"",""t"":209623},{""key"":""r"",""event"":""keydown"",""t"":514231},{""key"":""r"",""event"":""keyup"",""t"":514318},{""key"":"" "",""event"":""keydown"",""t"":520061},{""key"":"" "",""event"":""keyup"",""t"":520161},{""key"":""d"",""event"":""keydown"",""t"":553371},{""key"":""d"",""event"":""keyup"",""t"":553739},{""key"":""d"",""event"":""keydown"",""t"":555562},{""key"":""d"",""event"":""keyup"",""t"":555660},{""key"":""q"",""event"":""keydown"",""t"":557241},{""key"":""q"",""event"":""keyup"",""t"":557407},{""key"":""e"",""event"":""keydown"",""t"":558436},{""key"":""e"",""event"":""keyup"",""t"":558560},{""key"":""e"",""event"":""keydown"",""t"":559258},{""key"":""e"",""event"":""keyup"",""t"":559412},{""key"":""e"",""event"":""keydown"",""t"":560055},{""key"":""e"",""event"":""keyup"",""t"":560166},{""key"":""e"",""event"":""keydown"",""t"":561379},{""key"":""e"",""event"":""keyup"",""t"":561497},{""key"":""e"",""event"":""keydown"",""t"":561782},{""key"":""e"",""event"":""keyup"",""t"":561884},{""key"":""e"",""event"":""keydown"",""t"":562019},{""key"":""e"",""event"":""keyup"",""t"":562138},{""key"":""a"",""event"":""keydown"",""t"":633148},{""key"":""a"",""event"":""keyup"",""t"":633235},{""key"":""d"",""event"":""keydown"",""t"":633739},{""key"":""d"",""event"":""keyup"",""t"":633873},{""key"":""d"",""event"":""keydown"",""t"":634082},{""key"":""d"",""event"":""keyup"",""t"":634166},{""key"":""d"",""event"":""keydown"",""t"":634265},{""key"":""d"",""event"":""keyup"",""t"":634338},{""key"":""d"",""event"":""keydown"",""t"":634424},{""key"":""d"",""event"":""keyup"",""t"":634495},{""key"":""d"",""event"":""keydown"",""t"":634609},{""key"":""d"",""event"":""keyup"",""t"":634694},{""key"":""d"",""event"":""keydown"",""t"":635011},{""key"":""d"",""event"":""keyup"",""t"":635126},{""key"":""d"",""event"":""keydown"",""t"":675123},{""key"":""d"",""event"":""keyup"",""t"":675175},{""key"":""q"",""event"":""keydown"",""t"":675470},{""key"":""q"",""event"":""keyup"",""t"":675584},{""key"":""q"",""event"":""keydown"",""t"":675779},{""key"":""q"",""event"":""keyup"",""t"":675802},{""key"":""e"",""event"":""keydown"",""t"":676193},{""key"":""e"",""event"":""keyup"",""t"":676282},{""key"":""e"",""event"":""keydown"",""t"":676394},{""key"":""e"",""event"":""keyup"",""t"":676449},{""key"":""e"",""event"":""keydown"",""t"":676534},{""key"":""e"",""event"":""keyup"",""t"":676612},{""key"":""e"",""event"":""keydown"",""t"":676711},{""key"":""e"",""event"":""keyup"",""t"":676781},{""key"":""e"",""event"":""keydown"",""t"":676875},{""key"":""e"",""event"":""keyup"",""t"":676951},{""key"":""e"",""event"":""keydown"",""t"":677055},{""key"":""e"",""event"":""keyup"",""t"":677131},{""key"":""e"",""event"":""keydown"",""t"":677241},{""key"":""e"",""event"":""keyup"",""t"":677315},{""key"":""e"",""event"":""keydown"",""t"":677412},{""key"":""e"",""event"":""keyup"",""t"":677486},{""key"":""e"",""event"":""keydown"",""t"":677572},{""key"":""e"",""event"":""keyup"",""t"":677647},{""key"":""e"",""event"":""keydown"",""t"":677749},{""key"":""e"",""event"":""keyup"",""t"":677822},{""key"":""e"",""event"":""keydown"",""t"":677916},{""key"":""e"",""event"":""keyup"",""t"":677991},{""key"":""e"",""event"":""keydown"",""t"":678088},{""key"":""e"",""event"":""keyup"",""t"":678161},{""key"":""e"",""event"":""keydown"",""t"":678255},{""key"":""e"",""event"":""keyup"",""t"":678326},{""key"":""e"",""event"":""keydown"",""t"":678424},{""key"":""e"",""event"":""keyup"",""t"":678492},{""key"":""e"",""event"":""keydown"",""t"":678588},{""key"":""e"",""event"":""keyup"",""t"":678667},{""key"":""d"",""event"":""keydown"",""t"":680962},{""key"":""d"",""event"":""keyup"",""t"":681043},{""key"":"" "",""event"":""keydown"",""t"":687459},{""key"":"" "",""event"":""keyup"",""t"":687597}]","[]"
"1004933","","{""creativity-rating"":3,""creativity-free-response"":""In my assessment, this game feels slightly more creative than the previous titles. It introduces more parameters to manage, requires precise navigation to overcome specific obstacles, and utilizes a core concept that is noticeably less common than the formulas seen in the first two tests.\n\nThe genuinely creative aspects lie in the ability to control the alignment and density of the units—specifically, the tactical mechanic of commanding the swarm to spread out to avoid hazards, or to form a strict, narrow line to pass through tunnels.\n\nHowever, where it falls short in terms of creativity is its underlying structure. Ultimately, it remains a standard escort game where you move units from point A to point B while dodging environmental elements. It is a solid execution of those mechanics, but it is not revolutionary"",""originality-rating"":3,""originality-free-response"":""This game is fairly original, and in my opinion, it features the least common concept among the three games I tested. What makes it genuinely original is the management of secondary parameters within the objectives—specifically, the ability to make the units separate, align, and coordinate.\n\nHowever, the core concept remains very basic. Aesthetically, it still heavily resembles a low-quality Flash game, which makes it visually poor. Narratively, the swarm mechanic could evoke the idea of migrating birds; while this is a nice concept, it severely lacks immersion, and the overall theme feels undercooked.\n\nMechanically is where the game is the most interesting, thanks to the different formation options. But there is a massive flaw: the extreme sluggishness. It would make much more sense to significantly increase the units' movement speed and provide larger maps. As it currently stands, the player literally falls asleep before even finishing a single level."",""effectiveness-rating"":2,""effectiveness-free-response"":""Ironically, this was the least enjoyable game of the three. While the core ideas are genuinely better than the previous titles, the extreme sluggishness of the pacing makes it highly irritating and soporific. It is impossible to feel engaged or stimulated while playing. Many players would have undoubtedly quit after the very first stage, if not earlier.\n\nFurthermore, there is a highly frustrating visual issue in the second stage when the player must split the swarm to avoid the dark mass. The mechanic feels extremely unintuitive and poorly executed, as it seems inevitable to lose units. Finally, the dark mass hazard itself is very poorly telegraphed and incredibly hard to see"",""authenticity-rating"":3,""attention-check"":3,""intentionality-rating"":3,""authenticity-intentionality-free-response"":""This game visibly demonstrates a bit more effort in its creativity and gameplay loop by attempting to vary the stages and objectives, which is a definite strength compared to the first two titles.\n\nHowever, the extreme sluggishness, the poor visual clarity, and the unfairness of the second stage make the overall experience quite dreadful and highly unstimulating. This is exactly why I gave average ratings across the board. The game is slightly more original than the previous two, and one can sense a bit more personal effort put into the core mechanics, but ultimately, the execution remains extremely mediocre.""}","evaluation-chat-2-murmuration","survey","12","4551520","0.0-12.0","69967d911d9f679e547767a2","6987c292780adf01bb926159","69a379b9923a6778b530aea1","","","","","","",""
"38970","","{""concept-creativity-rating"":3,""concept-implementation-rating"":3,""question1"":null}","concept-chat-2-murmuration","survey","13","4590500","0.0-13.0","69967d911d9f679e547767a2","6987c292780adf01bb926159","69a379b9923a6778b530aea1","","","","","","",""
"3657","You have completed all of the games!<br><br>Press any key to proceed to some final questions before returning to Prolific."," ","pre-baseline-questions","html-keyboard-response","14","4594158","0.0-14.0","69967d911d9f679e547767a2","6987c292780adf01bb926159","69a379b9923a6778b530aea1","","","","","","",""
"153109","","{""baseline_originality_rating"":4,""baseline_effectiveness_rating"":5,""baseline_authenticity_rating"":4,""baseline_intentionality_rating"":4}","baseline-questions-rating","survey","15","4747278","0.0-15.0","69967d911d9f679e547767a2","6987c292780adf01bb926159","69a379b9923a6778b530aea1","","","","","","",""
"286862","","{""ai_aware_question"":""No, the fact that these games were made by an AI did not impact my judgment in any way. I would have rated a game developed by a human with the exact same standards. I was as honest and objective as possible. I have a great deal of respect for their AI and what it is capable of achieving, so its involvement did not bias my review.\n\nThere were some genuinely good ideas and some bad ones. My sole requirement was to determine if the game fulfilled its primary function: to entertain and engage me. The fact that it was generated by an AI does not excuse messy interfaces or punishing, unfair level design.""}","ai-aware-question","survey","16","5034145","0.0-16.0","69967d911d9f679e547767a2","6987c292780adf01bb926159","69a379b9923a6778b530aea1","","","","","","",""
"6816","
        <p> You have completed the experiment! Press any key to save your data and get redirected back to Prolific. <strong>Please do not close the page until you have been redirected to Prolific.</strong> <p>
      "," ","goodbye","html-keyboard-response","17","5040961","0.0-17.0","69967d911d9f679e547767a2","6987c292780adf01bb926159","69a379b9923a6778b530aea1","","","","","","",""
