"rt","stimulus","response","phase","trial_type","trial_index","time_elapsed","internal_node_id","prolific_subject_id","study_id","session_id","exit_reason","exit_stage","exit_progress","game_data","emergency_text","keystrokes","mouse_events"
"19441","Welcome! In this study, you will play three short video games, completing a short survey after each game.<br><br>Please make sure you are in a quiet environment where you can focus for the duration of the study. Some games may use sound, so please ensure that your device's volume is not muted.<br><br>Press any key to begin.","enter","welcome-message","html-keyboard-response","0","19450","0.0-0.0","68d3f90c71dc2351e2b2d41e","6987c292780adf01bb926159","69a516dbfb4202a8e4504499","","","","","","",""
"42254","","{""commitment-check"":[""yes""]}","commitment-check","survey","1","61747","0.0-1.0","68d3f90c71dc2351e2b2d41e","6987c292780adf01bb926159","69a516dbfb4202a8e4504499","","","","","","",""
"39327","Press any key to proceed to the first video game. Should you encounter a game-breaking bug, please report the issue in the Menu tab to the right of the screen.","enter","pre-game-one-message","html-keyboard-response","2","101075","0.0-2.0","68d3f90c71dc2351e2b2d41e","6987c292780adf01bb926159","69a516dbfb4202a8e4504499","","","","","","",""
"118450","","","game-claude-2-moth","plugin-game-iframe","3","219546","0.0-3.0","68d3f90c71dc2351e2b2d41e","6987c292780adf01bb926159","69a516dbfb4202a8e4504499","game-complete","end:mixed","{""stage"":""end:mixed"",""detail"":{""endType"":""mixed"",""dependency"":0.4768672699999994,""gameTime"":101.18757333333461}}","{""result"":""win"",""endType"":""mixed"",""dependency"":0.4768672699999994,""mothsFollowing"":0}","null","[{""key"":""Enter"",""event"":""keyup"",""t"":107},{""key"":""v"",""event"":""keydown"",""t"":5407},{""key"":"" "",""event"":""keydown"",""t"":5409},{""key"":""v"",""event"":""keyup"",""t"":5417},{""key"":"" "",""event"":""keyup"",""t"":5557},{""key"":"" "",""event"":""keydown"",""t"":10991},{""key"":"" "",""event"":""keyup"",""t"":11166},{""key"":"" "",""event"":""keydown"",""t"":13424},{""key"":"" "",""event"":""keyup"",""t"":13587},{""key"":"" "",""event"":""keydown"",""t"":14380},{""key"":"" "",""event"":""keyup"",""t"":14704},{""key"":""ArrowLeft"",""event"":""keydown"",""t"":15797},{""key"":""ArrowLeft"",""event"":""keyup"",""t"":15967},{""key"":""ArrowRight"",""event"":""keydown"",""t"":17324},{""key"":""ArrowRight"",""event"":""keyup"",""t"":17499},{""key"":""ArrowDown"",""event"":""keydown"",""t"":18100},{""key"":""ArrowDown"",""event"":""keyup"",""t"":18221},{""key"":""ArrowLeft"",""event"":""keydown"",""t"":18978},{""key"":""ArrowLeft"",""event"":""keydown"",""t"":19471},{""key"":""ArrowLeft"",""event"":""keydown"",""t"":19497},{""key"":""ArrowLeft"",""event"":""keyup"",""t"":19523},{""key"":""ArrowLeft"",""event"":""keydown"",""t"":19725},{""key"":""ArrowLeft"",""event"":""keyup"",""t"":20241},{""key"":""ArrowRight"",""event"":""keydown"",""t"":20317},{""key"":""ArrowRight"",""event"":""keyup"",""t"":20490},{""key"":""ArrowRight"",""event"":""keydown"",""t"":20737},{""key"":""ArrowRight"",""event"":""keydown"",""t"":21225},{""key"":""ArrowRight"",""event"":""keydown"",""t"":21273},{""key"":""ArrowRight"",""event"":""keydown"",""t"":21299},{""key"":""ArrowRight"",""event"":""keydown"",""t"":21323},{""key"":""ArrowRight"",""event"":""keydown"",""t"":21347},{""key"":""ArrowRight"",""event"":""keydown"",""t"":21397},{""key"":""ArrowRight"",""event"":""keydown"",""t"":21421},{""key"":""ArrowRight"",""event"":""keydown"",""t"":21445},{""key"":""ArrowRight"",""event"":""keydown"",""t"":21493},{""key"":""ArrowRight"",""event"":""keydown"",""t"":21518},{""key"":""ArrowRight"",""event"":""keydown"",""t"":21542},{""key"":""ArrowRight"",""event"":""keyup"",""t"":21566},{""key"":""ArrowRight"",""event"":""keydown"",""t"":21662},{""key"":""ArrowRight"",""event"":""keydown"",""t"":22163},{""key"":""ArrowRight"",""event"":""keydown"",""t"":22188},{""key"":""ArrowRight"",""event"":""keyup"",""t"":22212},{""key"":""ArrowLeft"",""event"":""keydown"",""t"":22656},{""key"":""ArrowLeft"",""event"":""keydown"",""t"":23168},{""key"":""ArrowLeft"",""event"":""keydown"",""t"":23193},{""key"":""ArrowLeft"",""event"":""keydown"",""t"":23216},{""key"":""ArrowLeft"",""event"":""keydown"",""t"":23242},{""key"":""ArrowLeft"",""event"":""keydown"",""t"":23291},{""key"":""ArrowLeft"",""event"":""keydown"",""t"":23314},{""key"":""ArrowLeft"",""event"":""keydown"",""t"":23339},{""key"":""ArrowLeft"",""event"":""keydown"",""t"":23387},{""key"":""ArrowLeft"",""event"":""keydown"",""t"":23411},{""key"":""ArrowLeft"",""event"":""keydown"",""t"":23436},{""key"":""ArrowLeft"",""event"":""keydown"",""t"":23463},{""key"":""ArrowLeft"",""event"":""keydown"",""t"":23513},{""key"":""ArrowLeft"",""event"":""keydown"",""t"":23537},{""key"":""ArrowLeft"",""event"":""keydown"",""t"":23562},{""key"":""ArrowLeft"",""event"":""keydown"",""t"":23610},{""key"":""ArrowLeft"",""event"":""keydown"",""t"":23634},{""key"":""ArrowLeft"",""event"":""keydown"",""t"":23658},{""key"":""ArrowLeft"",""event"":""keydown"",""t"":23684},{""key"":""ArrowLeft"",""event"":""keydown"",""t"":23733},{""key"":""ArrowLeft"",""event"":""keydown"",""t"":23757},{""key"":""ArrowLeft"",""event"":""keydown"",""t"":23781},{""key"":""ArrowLeft"",""event"":""keydown"",""t"":23807},{""key"":""ArrowLeft"",""event"":""keydown"",""t"":23857},{""key"":""ArrowLeft"",""event"":""keydown"",""t"":23882},{""key"":""ArrowLeft"",""event"":""keydown"",""t"":23908},{""key"":""ArrowLeft"",""event"":""keydown"",""t"":23934},{""key"":""ArrowLeft"",""event"":""keydown"",""t"":23984},{""key"":""ArrowLeft"",""event"":""keydown"",""t"":24009},{""key"":""ArrowLeft"",""event"":""keydown"",""t"":24034},{""key"":""ArrowLeft"",""event"":""keydown"",""t"":24059},{""key"":""ArrowLeft"",""event"":""keydown"",""t"":24109},{""key"":""ArrowLeft"",""event"":""keydown"",""t"":24134},{""key"":""ArrowLeft"",""event"":""keydown"",""t"":24159},{""key"":""ArrowLeft"",""event"":""keydown"",""t"":24183},{""key"":""ArrowLeft"",""event"":""keydown"",""t"":24233},{""key"":""ArrowLeft"",""event"":""keydown"",""t"":24261},{""key"":""ArrowLeft"",""event"":""keydown"",""t"":24286},{""key"":""ArrowLeft"",""event"":""keydown"",""t"":24312},{""key"":""ArrowLeft"",""event"":""keydown"",""t"":24363},{""key"":""ArrowLeft"",""event"":""keydown"",""t"":24390},{""key"":""ArrowLeft"",""event"":""keyup"",""t"":24390},{""key"":""ArrowRight"",""event"":""keydown"",""t"":24442},{""key"":""ArrowRight"",""event"":""keyup"",""t"":24651},{""key"":""ArrowRight"",""event"":""keydown"",""t"":25183},{""key"":""ArrowRight"",""event"":""keydown"",""t"":25695},{""key"":""ArrowRight"",""event"":""keyup"",""t"":25695},{""key"":""ArrowRight"",""event"":""keydown"",""t"":25890},{""key"":""ArrowRight"",""event"":""keyup"",""t"":26290},{""key"":""ArrowUp"",""event"":""keydown"",""t"":27090},{""key"":""ArrowUp"",""event"":""keydown"",""t"":27597},{""key"":""ArrowUp"",""event"":""keydown"",""t"":27623},{""key"":""ArrowUp"",""event"":""keydown"",""t"":27648},{""key"":""ArrowUp"",""event"":""keydown"",""t"":27699},{""key"":""ArrowUp"",""event"":""keydown"",""t"":27724},{""key"":""ArrowUp"",""event"":""keyup"",""t"":27750},{""key"":""ArrowUp"",""event"":""keydown"",""t"":27952},{""key"":""ArrowUp"",""event"":""keyup"",""t"":28153},{""key"":"" "",""event"":""keydown"",""t"":32120},{""key"":"" "",""event"":""keyup"",""t"":32223},{""key"":""ArrowUp"",""event"":""keydown"",""t"":32961},{""key"":""ArrowUp"",""event"":""keyup"",""t"":33170},{""key"":""ArrowRight"",""event"":""keydown"",""t"":33397},{""key"":""ArrowRight"",""event"":""keyup"",""t"":33694},{""key"":""ArrowRight"",""event"":""keydown"",""t"":34112},{""key"":""ArrowRight"",""event"":""keydown"",""t"":34637},{""key"":""ArrowRight"",""event"":""keydown"",""t"":34664},{""key"":""ArrowRight"",""event"":""keyup"",""t"":34690},{""key"":""ArrowRight"",""event"":""keydown"",""t"":34841},{""key"":""ArrowRight"",""event"":""keyup"",""t"":35295},{""key"":""ArrowLeft"",""event"":""keydown"",""t"":35846},{""key"":""ArrowLeft"",""event"":""keyup"",""t"":36192},{""key"":""ArrowLeft"",""event"":""keydown"",""t"":36448},{""key"":""ArrowLeft"",""event"":""keydown"",""t"":36936},{""key"":""ArrowLeft"",""event"":""keydown"",""t"":36963},{""key"":""ArrowLeft"",""event"":""keyup"",""t"":36989},{""key"":""ArrowRight"",""event"":""keydown"",""t"":37149},{""key"":""ArrowRight"",""event"":""keydown"",""t"":37670},{""key"":""ArrowRight"",""event"":""keydown"",""t"":37696},{""key"":""ArrowRight"",""event"":""keydown"",""t"":37722},{""key"":""ArrowRight"",""event"":""keydown"",""t"":37749},{""key"":""ArrowRight"",""event"":""keydown"",""t"":37801},{""key"":""ArrowRight"",""event"":""keydown"",""t"":37826},{""key"":""ArrowRight"",""event"":""keydown"",""t"":37852},{""key"":""ArrowRight"",""event"":""keydown"",""t"":37878},{""key"":""ArrowRight"",""event"":""keydown"",""t"":37903},{""key"":""ArrowRight"",""event"":""keydown"",""t"":37955},{""key"":""ArrowRight"",""event"":""keydown"",""t"":37981},{""key"":""ArrowRight"",""event"":""keydown"",""t"":38006},{""key"":""ArrowRight"",""event"":""keydown"",""t"":38032},{""key"":""ArrowRight"",""event"":""keydown"",""t"":38058},{""key"":""ArrowRight"",""event"":""keydown"",""t"":38108},{""key"":""ArrowRight"",""event"":""keydown"",""t"":38133},{""key"":""ArrowRight"",""event"":""keydown"",""t"":38161},{""key"":""ArrowRight"",""event"":""keydown"",""t"":38187},{""key"":""ArrowRight"",""event"":""keydown"",""t"":38238},{""key"":""ArrowRight"",""event"":""keydown"",""t"":38263},{""key"":""ArrowRight"",""event"":""keydown"",""t"":38289},{""key"":""ArrowRight"",""event"":""keyup"",""t"":38313},{""key"":""ArrowRight"",""event"":""keydown"",""t"":38457},{""key"":""ArrowRight"",""event"":""keydown"",""t"":38965},{""key"":""ArrowRight"",""event"":""keydown"",""t"":38990},{""key"":""ArrowRight"",""event"":""keyup"",""t"":38990},{""key"":""ArrowUp"",""event"":""keydown"",""t"":39495},{""key"":""ArrowUp"",""event"":""keydown"",""t"":40008},{""key"":""ArrowUp"",""event"":""keydown"",""t"":40035},{""key"":""ArrowUp"",""event"":""keydown"",""t"":40061},{""key"":""ArrowUp"",""event"":""keydown"",""t"":40114},{""key"":""ArrowUp"",""event"":""keydown"",""t"":40141},{""key"":""ArrowUp"",""event"":""keydown"",""t"":40167},{""key"":""ArrowUp"",""event"":""keyup"",""t"":40167},{""key"":""ArrowUp"",""event"":""keydown"",""t"":40297},{""key"":""ArrowUp"",""event"":""keyup"",""t"":40536},{""key"":""ArrowUp"",""event"":""keydown"",""t"":42091},{""key"":""ArrowUp"",""event"":""keydown"",""t"":42600},{""key"":""ArrowUp"",""event"":""keydown"",""t"":42626},{""key"":""ArrowUp"",""event"":""keydown"",""t"":42652},{""key"":""ArrowUp"",""event"":""keydown"",""t"":42679},{""key"":""ArrowUp"",""event"":""keydown"",""t"":42731},{""key"":""ArrowUp"",""event"":""keyup"",""t"":42731},{""key"":""ArrowDown"",""event"":""keydown"",""t"":42909},{""key"":""ArrowDown"",""event"":""keyup"",""t"":43356},{""key"":"" "",""event"":""keydown"",""t"":45473},{""key"":"" "",""event"":""keyup"",""t"":45605},{""key"":"" "",""event"":""keydown"",""t"":45986},{""key"":"" "",""event"":""keydown"",""t"":46511},{""key"":"" "",""event"":""keydown"",""t"":46536},{""key"":"" "",""event"":""keydown"",""t"":46562},{""key"":"" "",""event"":""keydown"",""t"":46587},{""key"":"" "",""event"":""keyup"",""t"":46614},{""key"":"" "",""event"":""keydown"",""t"":46968},{""key"":"" "",""event"":""keyup"",""t"":47118},{""key"":""ArrowDown"",""event"":""keydown"",""t"":47906},{""key"":""ArrowDown"",""event"":""keyup"",""t"":48109},{""key"":"" "",""event"":""keydown"",""t"":48781},{""key"":"" "",""event"":""keyup"",""t"":48987},{""key"":""ArrowDown"",""event"":""keydown"",""t"":49374},{""key"":""ArrowDown"",""event"":""keydown"",""t"":49873},{""key"":""ArrowDown"",""event"":""keydown"",""t"":49899},{""key"":""ArrowDown"",""event"":""keydown"",""t"":49926},{""key"":""ArrowDown"",""event"":""keydown"",""t"":49979},{""key"":""ArrowDown"",""event"":""keydown"",""t"":50005},{""key"":""ArrowDown"",""event"":""keydown"",""t"":50031},{""key"":""ArrowDown"",""event"":""keydown"",""t"":50058},{""key"":""ArrowDown"",""event"":""keydown"",""t"":50084},{""key"":""ArrowDown"",""event"":""keydown"",""t"":50138},{""key"":""ArrowDown"",""event"":""keydown"",""t"":50165},{""key"":""ArrowDown"",""event"":""keydown"",""t"":50192},{""key"":""ArrowDown"",""event"":""keydown"",""t"":50218},{""key"":""ArrowDown"",""event"":""keydown"",""t"":50244},{""key"":""ArrowDown"",""event"":""keyup"",""t"":50271},{""key"":""ArrowRight"",""event"":""keydown"",""t"":50424},{""key"":""ArrowRight"",""event"":""keyup"",""t"":50851},{""key"":""ArrowDown"",""event"":""keydown"",""t"":51364},{""key"":""ArrowDown"",""event"":""keyup"",""t"":51469},{""key"":""ArrowLeft"",""event"":""keydown"",""t"":52014},{""key"":""ArrowLeft"",""event"":""keydown"",""t"":52530},{""key"":""ArrowLeft"",""event"":""keydown"",""t"":52559},{""key"":""ArrowLeft"",""event"":""keydown"",""t"":52586},{""key"":""ArrowLeft"",""event"":""keydown"",""t"":52612},{""key"":""ArrowLeft"",""event"":""keydown"",""t"":52665},{""key"":""ArrowLeft"",""event"":""keydown"",""t"":52691},{""key"":""ArrowLeft"",""event"":""keydown"",""t"":52717},{""key"":""ArrowLeft"",""event"":""keydown"",""t"":52743},{""key"":""ArrowLeft"",""event"":""keydown"",""t"":52799},{""key"":""ArrowLeft"",""event"":""keydown"",""t"":52825},{""key"":""ArrowLeft"",""event"":""keydown"",""t"":52852},{""key"":""ArrowLeft"",""event"":""keydown"",""t"":52878},{""key"":""ArrowLeft"",""event"":""keydown"",""t"":52904},{""key"":""ArrowLeft"",""event"":""keydown"",""t"":52930},{""key"":""ArrowLeft"",""event"":""keyup"",""t"":52956},{""key"":""ArrowLeft"",""event"":""keydown"",""t"":53163},{""key"":""ArrowLeft"",""event"":""keyup"",""t"":53551},{""key"":""ArrowLeft"",""event"":""keydown"",""t"":53727},{""key"":""ArrowLeft"",""event"":""keydown"",""t"":54245},{""key"":""ArrowLeft"",""event"":""keydown"",""t"":54271},{""key"":""ArrowLeft"",""event"":""keydown"",""t"":54297},{""key"":""ArrowLeft"",""event"":""keydown"",""t"":54324},{""key"":""ArrowLeft"",""event"":""keydown"",""t"":54350},{""key"":""ArrowLeft"",""event"":""keydown"",""t"":54401},{""key"":""ArrowLeft"",""event"":""keydown"",""t"":54428},{""key"":""ArrowLeft"",""event"":""keydown"",""t"":54454},{""key"":""ArrowLeft"",""event"":""keydown"",""t"":54479},{""key"":""ArrowLeft"",""event"":""keydown"",""t"":54506},{""key"":""ArrowLeft"",""event"":""keydown"",""t"":54557},{""key"":""ArrowLeft"",""event"":""keydown"",""t"":54583},{""key"":""ArrowLeft"",""event"":""keydown"",""t"":54609},{""key"":""ArrowLeft"",""event"":""keydown"",""t"":54636},{""key"":""ArrowLeft"",""event"":""keydown"",""t"":54662},{""key"":""ArrowLeft"",""event"":""keydown"",""t"":54715},{""key"":""ArrowLeft"",""event"":""keyup"",""t"":54741},{""key"":""ArrowRight"",""event"":""keydown"",""t"":54845},{""key"":""ArrowRight"",""event"":""keydown"",""t"":55334},{""key"":""ArrowRight"",""event"":""keydown"",""t"":55385},{""key"":""ArrowRight"",""event"":""keydown"",""t"":55413},{""key"":""ArrowRight"",""event"":""keydown"",""t"":55439},{""key"":""ArrowRight"",""event"":""keydown"",""t"":55464},{""key"":""ArrowRight"",""event"":""keydown"",""t"":55490},{""key"":""ArrowRight"",""event"":""keydown"",""t"":55540},{""key"":""ArrowRight"",""event"":""keydown"",""t"":55565},{""key"":""ArrowRight"",""event"":""keydown"",""t"":55591},{""key"":""ArrowRight"",""event"":""keydown"",""t"":55616},{""key"":""ArrowRight"",""event"":""keydown"",""t"":55666},{""key"":""ArrowRight"",""event"":""keydown"",""t"":55693},{""key"":""ArrowRight"",""event"":""keyup"",""t"":55693},{""key"":""ArrowRight"",""event"":""keydown"",""t"":56016},{""key"":""ArrowRight"",""event"":""keydown"",""t"":56516},{""key"":""ArrowRight"",""event"":""keydown"",""t"":56566},{""key"":""ArrowRight"",""event"":""keyup"",""t"":56566},{""key"":""ArrowUp"",""event"":""keydown"",""t"":62488},{""key"":""ArrowUp"",""event"":""keyup"",""t"":62938},{""key"":"" "",""event"":""keydown"",""t"":63477},{""key"":"" "",""event"":""keyup"",""t"":63705},{""key"":"" "",""event"":""keydown"",""t"":63966},{""key"":"" "",""event"":""keyup"",""t"":64254},{""key"":"" "",""event"":""keydown"",""t"":64842},{""key"":"" "",""event"":""keyup"",""t"":65058},{""key"":""ArrowLeft"",""event"":""keydown"",""t"":65925},{""key"":""ArrowLeft"",""event"":""keyup"",""t"":66073},{""key"":""ArrowLeft"",""event"":""keydown"",""t"":66354},{""key"":""ArrowLeft"",""event"":""keyup"",""t"":66486},{""key"":""ArrowRight"",""event"":""keydown"",""t"":67414},{""key"":""ArrowRight"",""event"":""keyup"",""t"":67547},{""key"":"" "",""event"":""keydown"",""t"":67705},{""key"":"" "",""event"":""keyup"",""t"":67917},{""key"":""ArrowRight"",""event"":""keydown"",""t"":68310},{""key"":""ArrowRight"",""event"":""keyup"",""t"":68465},{""key"":""ArrowLeft"",""event"":""keydown"",""t"":69255},{""key"":""ArrowLeft"",""event"":""keyup"",""t"":69394},{""key"":""ArrowLeft"",""event"":""keydown"",""t"":69669},{""key"":""ArrowLeft"",""event"":""keyup"",""t"":69802},{""key"":"" "",""event"":""keydown"",""t"":70223},{""key"":"" "",""event"":""keyup"",""t"":70390},{""key"":""ArrowLeft"",""event"":""keydown"",""t"":71063},{""key"":""ArrowLeft"",""event"":""keyup"",""t"":71221},{""key"":""ArrowDown"",""event"":""keydown"",""t"":71894},{""key"":""ArrowDown"",""event"":""keyup"",""t"":72108},{""key"":""ArrowLeft"",""event"":""keydown"",""t"":72298},{""key"":""ArrowLeft"",""event"":""keyup"",""t"":72594},{""key"":""ArrowLeft"",""event"":""keydown"",""t"":72700},{""key"":""ArrowLeft"",""event"":""keyup"",""t"":72869},{""key"":""ArrowDown"",""event"":""keydown"",""t"":73371},{""key"":""ArrowDown"",""event"":""keyup"",""t"":73477},{""key"":""ArrowRight"",""event"":""keydown"",""t"":74055},{""key"":""ArrowRight"",""event"":""keyup"",""t"":74207},{""key"":""ArrowRight"",""event"":""keydown"",""t"":75539},{""key"":""ArrowRight"",""event"":""keydown"",""t"":76048},{""key"":""ArrowRight"",""event"":""keydown"",""t"":76100},{""key"":""ArrowRight"",""event"":""keyup"",""t"":76125},{""key"":"" "",""event"":""keydown"",""t"":76612},{""key"":"" "",""event"":""keyup"",""t"":77012},{""key"":"" "",""event"":""keydown"",""t"":77452},{""key"":"" "",""event"":""keyup"",""t"":77589},{""key"":""ArrowLeft"",""event"":""keydown"",""t"":77823},{""key"":""ArrowLeft"",""event"":""keyup"",""t"":78005},{""key"":""ArrowLeft"",""event"":""keydown"",""t"":78184},{""key"":""ArrowLeft"",""event"":""keyup"",""t"":78336},{""key"":""ArrowLeft"",""event"":""keydown"",""t"":78536},{""key"":""ArrowLeft"",""event"":""keyup"",""t"":79013},{""key"":"" "",""event"":""keydown"",""t"":79140},{""key"":"" "",""event"":""keyup"",""t"":79368},{""key"":""ArrowLeft"",""event"":""keydown"",""t"":79577},{""key"":""ArrowLeft"",""event"":""keyup"",""t"":79683},{""key"":""ArrowRight"",""event"":""keydown"",""t"":79765},{""key"":""ArrowRight"",""event"":""keyup"",""t"":80116},{""key"":""ArrowRight"",""event"":""keydown"",""t"":80627},{""key"":""ArrowRight"",""event"":""keyup"",""t"":80809},{""key"":"" "",""event"":""keydown"",""t"":80965},{""key"":"" "",""event"":""keyup"",""t"":81383},{""key"":""ArrowLeft"",""event"":""keydown"",""t"":81437},{""key"":""ArrowLeft"",""event"":""keyup"",""t"":81916},{""key"":"" "",""event"":""keydown"",""t"":82180},{""key"":"" "",""event"":""keyup"",""t"":82664},{""key"":""ArrowRight"",""event"":""keydown"",""t"":82874},{""key"":""ArrowRight"",""event"":""keyup"",""t"":83059},{""key"":"" "",""event"":""keydown"",""t"":83257},{""key"":"" "",""event"":""keydown"",""t"":83763},{""key"":"" "",""event"":""keydown"",""t"":83791},{""key"":"" "",""event"":""keydown"",""t"":83842},{""key"":"" "",""event"":""keydown"",""t"":83868},{""key"":"" "",""event"":""keydown"",""t"":83893},{""key"":"" "",""event"":""keyup"",""t"":83919},{""key"":""ArrowRight"",""event"":""keydown"",""t"":83944},{""key"":""ArrowRight"",""event"":""keydown"",""t"":84469},{""key"":""ArrowRight"",""event"":""keyup"",""t"":84469},{""key"":""ArrowRight"",""event"":""keydown"",""t"":84719},{""key"":""ArrowRight"",""event"":""keyup"",""t"":84747},{""key"":"" "",""event"":""keydown"",""t"":84966},{""key"":"" "",""event"":""keydown"",""t"":85486},{""key"":"" "",""event"":""keydown"",""t"":85514},{""key"":"" "",""event"":""keydown"",""t"":85544},{""key"":"" "",""event"":""keydown"",""t"":85571},{""key"":"" "",""event"":""keydown"",""t"":85597},{""key"":""ArrowLeft"",""event"":""keydown"",""t"":85625},{""key"":""ArrowLeft"",""event"":""keyup"",""t"":85969},{""key"":"" "",""event"":""keyup"",""t"":85969},{""key"":""ArrowLeft"",""event"":""keydown"",""t"":86224},{""key"":"" "",""event"":""keydown"",""t"":86326},{""key"":""ArrowLeft"",""event"":""keyup"",""t"":86632},{""key"":"" "",""event"":""keyup"",""t"":86657},{""key"":"" "",""event"":""keydown"",""t"":86812},{""key"":"" "",""event"":""keydown"",""t"":87337},{""key"":"" "",""event"":""keydown"",""t"":87364},{""key"":"" "",""event"":""keydown"",""t"":87390},{""key"":"" "",""event"":""keydown"",""t"":87417},{""key"":"" "",""event"":""keydown"",""t"":87444},{""key"":"" "",""event"":""keyup"",""t"":87471},{""key"":""ArrowLeft"",""event"":""keydown"",""t"":87471},{""key"":""ArrowLeft"",""event"":""keydown"",""t"":87968},{""key"":""ArrowLeft"",""event"":""keydown"",""t"":87997},{""key"":""ArrowLeft"",""event"":""keydown"",""t"":88023},{""key"":""ArrowLeft"",""event"":""keydown"",""t"":88075},{""key"":""ArrowLeft"",""event"":""keydown"",""t"":88102},{""key"":""ArrowLeft"",""event"":""keyup"",""t"":88128},{""key"":"" "",""event"":""keydown"",""t"":88260},{""key"":""ArrowRight"",""event"":""keydown"",""t"":88595},{""key"":""ArrowRight"",""event"":""keyup"",""t"":88852},{""key"":""ArrowRight"",""event"":""keydown"",""t"":89032},{""key"":"" "",""event"":""keyup"",""t"":89494},{""key"":""ArrowRight"",""event"":""keydown"",""t"":89547},{""key"":""ArrowRight"",""event"":""keydown"",""t"":89575},{""key"":""ArrowRight"",""event"":""keydown"",""t"":89603},{""key"":""ArrowRight"",""event"":""keyup"",""t"":89603},{""key"":""ArrowRight"",""event"":""keydown"",""t"":89768},{""key"":""ArrowRight"",""event"":""keyup"",""t"":90262},{""key"":""ArrowLeft"",""event"":""keydown"",""t"":90508},{""key"":"" "",""event"":""keydown"",""t"":90561},{""key"":""ArrowLeft"",""event"":""keyup"",""t"":90688},{""key"":"" "",""event"":""keyup"",""t"":90817},{""key"":""ArrowLeft"",""event"":""keydown"",""t"":90869},{""key"":""ArrowLeft"",""event"":""keyup"",""t"":90999},{""key"":""ArrowLeft"",""event"":""keydown"",""t"":91148},{""key"":""ArrowLeft"",""event"":""keydown"",""t"":91658},{""key"":""ArrowLeft"",""event"":""keydown"",""t"":91684},{""key"":""ArrowLeft"",""event"":""keydown"",""t"":91710},{""key"":""ArrowLeft"",""event"":""keydown"",""t"":91736},{""key"":""ArrowLeft"",""event"":""keydown"",""t"":91789},{""key"":""ArrowLeft"",""event"":""keydown"",""t"":91815},{""key"":""ArrowLeft"",""event"":""keydown"",""t"":91841},{""key"":""ArrowLeft"",""event"":""keydown"",""t"":91868},{""key"":""ArrowLeft"",""event"":""keydown"",""t"":91894},{""key"":""ArrowLeft"",""event"":""keydown"",""t"":91946},{""key"":""ArrowLeft"",""event"":""keydown"",""t"":91972},{""key"":""ArrowLeft"",""event"":""keydown"",""t"":91998},{""key"":""ArrowLeft"",""event"":""keyup"",""t"":91998},{""key"":""ArrowLeft"",""event"":""keydown"",""t"":92162},{""key"":""ArrowLeft"",""event"":""keyup"",""t"":92323},{""key"":""ArrowLeft"",""event"":""keydown"",""t"":92487},{""key"":""ArrowLeft"",""event"":""keyup"",""t"":92621},{""key"":"" "",""event"":""keydown"",""t"":92897},{""key"":"" "",""event"":""keyup"",""t"":93304},{""key"":""ArrowRight"",""event"":""keydown"",""t"":93437},{""key"":"" "",""event"":""keydown"",""t"":93518},{""key"":""ArrowRight"",""event"":""keyup"",""t"":93648},{""key"":"" "",""event"":""keyup"",""t"":93675},{""key"":"" "",""event"":""keydown"",""t"":93857},{""key"":"" "",""event"":""keyup"",""t"":94095},{""key"":"" "",""event"":""keydown"",""t"":94258},{""key"":"" "",""event"":""keyup"",""t"":94420},{""key"":""ArrowRight"",""event"":""keydown"",""t"":94638},{""key"":""ArrowRight"",""event"":""keydown"",""t"":95149},{""key"":""ArrowRight"",""event"":""keydown"",""t"":95176},{""key"":""ArrowRight"",""event"":""keyup"",""t"":95202},{""key"":"" "",""event"":""keydown"",""t"":95254},{""key"":"" "",""event"":""keyup"",""t"":95598},{""key"":"" "",""event"":""keydown"",""t"":95801},{""key"":"" "",""event"":""keyup"",""t"":96180},{""key"":"" "",""event"":""keydown"",""t"":96512},{""key"":"" "",""event"":""keydown"",""t"":97021},{""key"":"" "",""event"":""keydown"",""t"":97047},{""key"":""ArrowLeft"",""event"":""keydown"",""t"":97075},{""key"":"" "",""event"":""keyup"",""t"":97104},{""key"":""ArrowLeft"",""event"":""keyup"",""t"":97159},{""key"":""ArrowRight"",""event"":""keydown"",""t"":97187},{""key"":""ArrowRight"",""event"":""keydown"",""t"":97712},{""key"":""ArrowRight"",""event"":""keydown"",""t"":97743},{""key"":""ArrowRight"",""event"":""keydown"",""t"":97772},{""key"":""ArrowRight"",""event"":""keydown"",""t"":97800},{""key"":""ArrowRight"",""event"":""keyup"",""t"":97800},{""key"":""ArrowRight"",""event"":""keydown"",""t"":97999},{""key"":""ArrowRight"",""event"":""keyup"",""t"":98217},{""key"":"" "",""event"":""keydown"",""t"":98376},{""key"":"" "",""event"":""keydown"",""t"":98874},{""key"":"" "",""event"":""keydown"",""t"":98900},{""key"":""ArrowLeft"",""event"":""keydown"",""t"":98900},{""key"":""ArrowLeft"",""event"":""keyup"",""t"":99184},{""key"":"" "",""event"":""keyup"",""t"":99236},{""key"":""ArrowRight"",""event"":""keydown"",""t"":99366},{""key"":""ArrowRight"",""event"":""keyup"",""t"":99794},{""key"":"" "",""event"":""keydown"",""t"":99981},{""key"":"" "",""event"":""keyup"",""t"":100327},{""key"":""ArrowLeft"",""event"":""keydown"",""t"":100328},{""key"":""ArrowLeft"",""event"":""keydown"",""t"":100836},{""key"":""ArrowLeft"",""event"":""keydown"",""t"":100863},{""key"":""ArrowLeft"",""event"":""keydown"",""t"":100890},{""key"":""ArrowLeft"",""event"":""keydown"",""t"":100916},{""key"":""ArrowLeft"",""event"":""keydown"",""t"":100943},{""key"":""ArrowLeft"",""event"":""keyup"",""t"":100969},{""key"":""ArrowLeft"",""event"":""keydown"",""t"":101183},{""key"":""ArrowLeft"",""event"":""keyup"",""t"":101317},{""key"":"" "",""event"":""keydown"",""t"":101659},{""key"":"" "",""event"":""keyup"",""t"":101987},{""key"":"" "",""event"":""keydown"",""t"":102124},{""key"":""ArrowRight"",""event"":""keydown"",""t"":102435},{""key"":""ArrowRight"",""event"":""keyup"",""t"":102600},{""key"":"" "",""event"":""keyup"",""t"":110498},{""key"":""Enter"",""event"":""keydown"",""t"":118433}]","[]"
"691467","","{""creativity-rating"":3,""creativity-free-response"":""i gave it 3 because i like the aspect of space and moon etc. but i think that the concept is kind of similar to oher games ."",""originality-rating"":4,""originality-free-response"":""i feel like the space part of the game and especially those blackholes that can attract you to them is pretty original and fun."",""effectiveness-rating"":4,""effectiveness-free-response"":""Overall i found the game very enjoyable and simple to play , i didn't encounter any bug or problem playing the game so it was a great experience . "",""authenticity-rating"":3,""attention-check"":3,""intentionality-rating"":5,""authenticity-intentionality-free-response"":""as i said before the overall concept of the game is kind of similar to other games , but the personal effort of the developer is very obvious in the details of the game .""}","evaluation-claude-2-moth","survey","4","911051","0.0-4.0","68d3f90c71dc2351e2b2d41e","6987c292780adf01bb926159","69a516dbfb4202a8e4504499","","","","","","",""
"88837","","{""concept-creativity-rating"":5,""concept-implementation-rating"":4,""question1"":null}","concept-claude-2-moth","survey","5","999921","0.0-5.0","68d3f90c71dc2351e2b2d41e","6987c292780adf01bb926159","69a516dbfb4202a8e4504499","","","","","","",""
"3802","You have completed your evaluation of the first video game.<br><br>Press any key to proceed to the second game.","enter","pre-game-two-message","html-keyboard-response","6","1003725","0.0-6.0","68d3f90c71dc2351e2b2d41e","6987c292780adf01bb926159","69a516dbfb4202a8e4504499","","","","","","",""
"34848","","","game-gemini-2-patch","plugin-game-iframe","7","1038583","0.0-7.0","68d3f90c71dc2351e2b2d41e","6987c292780adf01bb926159","69a516dbfb4202a8e4504499","game-complete","ended","{""stage"":""ended"",""detail"":{""patchCount"":0,""frustration"":100,""gameTimeRemaining"":277,""gameEnded"":true}}","{""result"":""win"",""frustration"":100,""patchCount"":0}","null","[{""key"":""Enter"",""event"":""keyup"",""t"":98},{""key"":"" "",""event"":""keydown"",""t"":6633},{""key"":"" "",""event"":""keyup"",""t"":6823},{""key"":"" "",""event"":""keydown"",""t"":7575},{""key"":"" "",""event"":""keyup"",""t"":7733},{""key"":""Enter"",""event"":""keydown"",""t"":34833}]","[]"
"444886","","{""creativity-rating"":1,""creativity-free-response"":""the game was impossible to understand in my opinion , it kept flashing texts that i couldn't read with no  instructions on how to actually play the game."",""originality-rating"":1,""originality-free-response"":""there was no instructions to play the game , i couldn't even start it but from the visuals i think its about golf. "",""effectiveness-rating"":1,""effectiveness-free-response"":""it was all buggy and it didn't provide any instructions on how to proceed with game before it ended."",""authenticity-rating"":1,""attention-check"":3,""intentionality-rating"":2,""authenticity-intentionality-free-response"":""there was some effort that was put into this game , but i don't think that its ready to be played , i could only guess from the visuals that the game is about golf.  ""}","evaluation-gemini-2-patch","survey","8","1483499","0.0-8.0","68d3f90c71dc2351e2b2d41e","6987c292780adf01bb926159","69a516dbfb4202a8e4504499","","","","","","",""
"42358","","{""concept-creativity-rating"":4,""concept-implementation-rating"":5,""question1"":null}","concept-gemini-2-patch","survey","9","1525883","0.0-9.0","68d3f90c71dc2351e2b2d41e","6987c292780adf01bb926159","69a516dbfb4202a8e4504499","","","","","","",""
"20840","You have completed your evaluation of the second video game.<br><br>Press any key to proceed to the final game.","enter","pre-game-three-message","html-keyboard-response","10","1546725","0.0-10.0","68d3f90c71dc2351e2b2d41e","6987c292780adf01bb926159","69a516dbfb4202a8e4504499","","","","","","",""
"493455","","","game-claude-3-bureaucromancer","plugin-game-iframe","11","2040193","0.0-11.0","68d3f90c71dc2351e2b2d41e","6987c292780adf01bb926159","69a516dbfb4202a8e4504499","game-complete","end:win","{""stage"":""end:win"",""detail"":{""won"":true,""score"":null,""casesProcessed"":22}}","{""result"":""win"",""score"":210,""casesProcessed"":22,""casesCorrect"":15,""casesMisfiled"":7,""bestStreak"":10,""dragonCorrect"":false}","null","[{""key"":""Enter"",""event"":""keyup"",""t"":119},{""key"":"" "",""event"":""keydown"",""t"":57871},{""key"":"" "",""event"":""keyup"",""t"":57979},{""key"":"" "",""event"":""keydown"",""t"":296078},{""key"":"" "",""event"":""keyup"",""t"":296211},{""key"":""Enter"",""event"":""keydown"",""t"":493450}]","[]"
"470482","","{""creativity-rating"":5,""creativity-free-response"":""i loved the game and the whole concept of it was very creative"",""originality-rating"":5,""originality-free-response"":""everything in the game was absolutely new to me , i played games since i was a kid but i never played a game similar to this one."",""effectiveness-rating"":5,""effectiveness-free-response"":""everything was working perfectly and i didn't encounter any bug or anything similar , and i very much enjoyed the game . "",""authenticity-rating"":5,""attention-check"":3,""intentionality-rating"":5,""authenticity-intentionality-free-response"":""this one by far is the most game that i felt like more effort was put into it , and the concept of the game is very unique .""}","evaluation-claude-3-bureaucromancer","survey","12","2510705","0.0-12.0","68d3f90c71dc2351e2b2d41e","6987c292780adf01bb926159","69a516dbfb4202a8e4504499","","","","","","",""
"68936","","{""concept-creativity-rating"":5,""concept-implementation-rating"":5,""question1"":null}","concept-claude-3-bureaucromancer","survey","13","2579656","0.0-13.0","68d3f90c71dc2351e2b2d41e","6987c292780adf01bb926159","69a516dbfb4202a8e4504499","","","","","","",""
"6732","You have completed all of the games!<br><br>Press any key to proceed to some final questions before returning to Prolific.","enter","pre-baseline-questions","html-keyboard-response","14","2586390","0.0-14.0","68d3f90c71dc2351e2b2d41e","6987c292780adf01bb926159","69a516dbfb4202a8e4504499","","","","","","",""
"31208","","{""baseline_originality_rating"":5,""baseline_effectiveness_rating"":5,""baseline_authenticity_rating"":4,""baseline_intentionality_rating"":4}","baseline-questions-rating","survey","15","2617617","0.0-15.0","68d3f90c71dc2351e2b2d41e","6987c292780adf01bb926159","69a516dbfb4202a8e4504499","","","","","","",""
"396723","","{""ai_blind_question"":""wow , i would have absolutely answered the questions entirely differently . the funny thing is after i finished the second game and i read the intention of the game , i said to myself this game had a concept only an AI could think of .""}","ai-blind-question","survey","16","3014352","0.0-16.0","68d3f90c71dc2351e2b2d41e","6987c292780adf01bb926159","69a516dbfb4202a8e4504499","","","","","","",""
"6443","
        <p> You have completed the experiment! Press any key to save your data and get redirected back to Prolific. <strong>Please do not close the page until you have been redirected to Prolific.</strong> <p>
      ","enter","goodbye","html-keyboard-response","17","3020797","0.0-17.0","68d3f90c71dc2351e2b2d41e","6987c292780adf01bb926159","69a516dbfb4202a8e4504499","","","","","","",""
