"","csv_name","prolific_subject_id","question","answer","phase","condition","trial_index","trial_type","stimulus","rt","time_elapsed","internal_node_id"
"1","025kjqdo4o","697a6fce0a9b7d9421c02d77","commitment-check","yes","commitment-check","aware",1,"survey",NA,12391,254666,"0.0-1.0"
"2","025kjqdo4o","697a6fce0a9b7d9421c02d77","creativity-rating","3","evaluation-chat-1-echo","aware",4,"survey",NA,397960,926072,"0.0-4.0"
"3","025kjqdo4o","697a6fce0a9b7d9421c02d77","creativity-free-response","it's a good example of a simple game, 30 minutes of fun until you get bored. It's extremely poorly done; at first glance, I didn't even know what I was doing. It could be greatly improved by focusing solely on the player experience.","evaluation-chat-1-echo","aware",4,"survey",NA,397960,926072,"0.0-4.0"
"4","025kjqdo4o","697a6fce0a9b7d9421c02d77","originality-rating","2","evaluation-chat-1-echo","aware",4,"survey",NA,397960,926072,"0.0-4.0"
"5","025kjqdo4o","697a6fce0a9b7d9421c02d77","originality-free-response","the 2d space is very outdated, There was no innovation whatsoever, not to mention how poorly everything was done.","evaluation-chat-1-echo","aware",4,"survey",NA,397960,926072,"0.0-4.0"
"6","025kjqdo4o","697a6fce0a9b7d9421c02d77","effectiveness-rating","1","evaluation-chat-1-echo","aware",4,"survey",NA,397960,926072,"0.0-4.0"
"7","025kjqdo4o","697a6fce0a9b7d9421c02d77","effectiveness-free-response","At first glance, I didn't even know what I was supposed to do; the message that the enemy had captured me just appeared. I tried again, taking a very lazy route, walking straight through most of it with the relic. In the end the enemy was bugged in the initial part of the map.","evaluation-chat-1-echo","aware",4,"survey",NA,397960,926072,"0.0-4.0"
"8","025kjqdo4o","697a6fce0a9b7d9421c02d77","authenticity-rating","2","evaluation-chat-1-echo","aware",4,"survey",NA,397960,926072,"0.0-4.0"
"9","025kjqdo4o","697a6fce0a9b7d9421c02d77","attention-check","3","evaluation-chat-1-echo","aware",4,"survey",NA,397960,926072,"0.0-4.0"
"10","025kjqdo4o","697a6fce0a9b7d9421c02d77","intentionality-rating","1","evaluation-chat-1-echo","aware",4,"survey",NA,397960,926072,"0.0-4.0"
"11","025kjqdo4o","697a6fce0a9b7d9421c02d77","authenticity-intentionality-free-response","It's a mediocre game with absolutely no polish.","evaluation-chat-1-echo","aware",4,"survey",NA,397960,926072,"0.0-4.0"
"12","025kjqdo4o","697a6fce0a9b7d9421c02d77","concept-creativity-rating","3","concept-chat-1-echo","aware",5,"survey",NA,32413,958500,"0.0-5.0"
"13","025kjqdo4o","697a6fce0a9b7d9421c02d77","concept-implementation-rating","1","concept-chat-1-echo","aware",5,"survey",NA,32413,958500,"0.0-5.0"
"14","025kjqdo4o","697a6fce0a9b7d9421c02d77","creativity-rating","1","evaluation-claude-2-moth","aware",8,"survey",NA,133076,1364142,"0.0-8.0"
"15","025kjqdo4o","697a6fce0a9b7d9421c02d77","creativity-free-response","a simple game, not a new concept, poorly made","evaluation-claude-2-moth","aware",8,"survey",NA,133076,1364142,"0.0-8.0"
"16","025kjqdo4o","697a6fce0a9b7d9421c02d77","originality-rating","1","evaluation-claude-2-moth","aware",8,"survey",NA,133076,1364142,"0.0-8.0"
"17","025kjqdo4o","697a6fce0a9b7d9421c02d77","originality-free-response","not a new concept, even being a simple game, and it was poorly polished","evaluation-claude-2-moth","aware",8,"survey",NA,133076,1364142,"0.0-8.0"
"18","025kjqdo4o","697a6fce0a9b7d9421c02d77","effectiveness-rating","1","evaluation-claude-2-moth","aware",8,"survey",NA,133076,1364142,"0.0-8.0"
"19","025kjqdo4o","697a6fce0a9b7d9421c02d77","effectiveness-free-response","very simple, completed in 2 minutes, very forgetable","evaluation-claude-2-moth","aware",8,"survey",NA,133076,1364142,"0.0-8.0"
"20","025kjqdo4o","697a6fce0a9b7d9421c02d77","authenticity-rating","1","evaluation-claude-2-moth","aware",8,"survey",NA,133076,1364142,"0.0-8.0"
"21","025kjqdo4o","697a6fce0a9b7d9421c02d77","attention-check","1","evaluation-claude-2-moth","aware",8,"survey",NA,133076,1364142,"0.0-8.0"
"22","025kjqdo4o","697a6fce0a9b7d9421c02d77","intentionality-rating","1","evaluation-claude-2-moth","aware",8,"survey",NA,133076,1364142,"0.0-8.0"
"23","025kjqdo4o","697a6fce0a9b7d9421c02d77","authenticity-intentionality-free-response","even for a simple game there was nothing to draw attention ","evaluation-claude-2-moth","aware",8,"survey",NA,133076,1364142,"0.0-8.0"
"24","025kjqdo4o","697a6fce0a9b7d9421c02d77","concept-creativity-rating","3","concept-claude-2-moth","aware",9,"survey",NA,48536,1412692,"0.0-9.0"
"25","025kjqdo4o","697a6fce0a9b7d9421c02d77","concept-implementation-rating","2","concept-claude-2-moth","aware",9,"survey",NA,48536,1412692,"0.0-9.0"
"26","025kjqdo4o","697a6fce0a9b7d9421c02d77","creativity-rating","2","evaluation-claude-3-bureaucromancer","aware",12,"survey",NA,180099,1734295,"0.0-12.0"
"27","025kjqdo4o","697a6fce0a9b7d9421c02d77","creativity-free-response","it's a good game, a concept taken from a famous game, it works well.","evaluation-claude-3-bureaucromancer","aware",12,"survey",NA,180099,1734295,"0.0-12.0"
"28","025kjqdo4o","697a6fce0a9b7d9421c02d77","originality-rating","1","evaluation-claude-3-bureaucromancer","aware",12,"survey",NA,180099,1734295,"0.0-12.0"
"29","025kjqdo4o","697a6fce0a9b7d9421c02d77","originality-free-response","A very famous game concept, mainly because of the game titled ""Papers Please"".","evaluation-claude-3-bureaucromancer","aware",12,"survey",NA,180099,1734295,"0.0-12.0"
"30","025kjqdo4o","697a6fce0a9b7d9421c02d77","effectiveness-rating","3","evaluation-claude-3-bureaucromancer","aware",12,"survey",NA,180099,1734295,"0.0-12.0"
"31","025kjqdo4o","697a6fce0a9b7d9421c02d77","effectiveness-free-response","it's a good core, need polishment to be a game, and an identity to be a good game ","evaluation-claude-3-bureaucromancer","aware",12,"survey",NA,180099,1734295,"0.0-12.0"
"32","025kjqdo4o","697a6fce0a9b7d9421c02d77","authenticity-rating","1","evaluation-claude-3-bureaucromancer","aware",12,"survey",NA,180099,1734295,"0.0-12.0"
"33","025kjqdo4o","697a6fce0a9b7d9421c02d77","attention-check","3","evaluation-claude-3-bureaucromancer","aware",12,"survey",NA,180099,1734295,"0.0-12.0"
"34","025kjqdo4o","697a6fce0a9b7d9421c02d77","intentionality-rating","2","evaluation-claude-3-bureaucromancer","aware",12,"survey",NA,180099,1734295,"0.0-12.0"
"35","025kjqdo4o","697a6fce0a9b7d9421c02d77","authenticity-intentionality-free-response","A game concept that's already famous, but with some changes that, with more polishing, could become something interesting.","evaluation-claude-3-bureaucromancer","aware",12,"survey",NA,180099,1734295,"0.0-12.0"
"36","025kjqdo4o","697a6fce0a9b7d9421c02d77","concept-creativity-rating","3","concept-claude-3-bureaucromancer","aware",13,"survey",NA,11405,1745713,"0.0-13.0"
"37","025kjqdo4o","697a6fce0a9b7d9421c02d77","concept-implementation-rating","3","concept-claude-3-bureaucromancer","aware",13,"survey",NA,11405,1745713,"0.0-13.0"
"38","025kjqdo4o","697a6fce0a9b7d9421c02d77","baseline_originality_rating","2","baseline-questions-rating","aware",15,"survey",NA,20864,1771548,"0.0-15.0"
"39","025kjqdo4o","697a6fce0a9b7d9421c02d77","baseline_effectiveness_rating","3","baseline-questions-rating","aware",15,"survey",NA,20864,1771548,"0.0-15.0"
"40","025kjqdo4o","697a6fce0a9b7d9421c02d77","baseline_authenticity_rating","2","baseline-questions-rating","aware",15,"survey",NA,20864,1771548,"0.0-15.0"
"41","025kjqdo4o","697a6fce0a9b7d9421c02d77","baseline_intentionality_rating","2","baseline-questions-rating","aware",15,"survey",NA,20864,1771548,"0.0-15.0"
"42","025kjqdo4o","697a6fce0a9b7d9421c02d77","ai_aware_question","Not in a way that mattered much; what weighed more heavily was the crude condition in which they were presented, which isn't really a problem.","ai-aware-question","aware",16,"survey",NA,60481,1832036,"0.0-16.0"
"43","06fl09fnsf","6983969b6ac55b26361bb853","commitment-check","yes","commitment-check","blind",1,"survey",NA,349715,394267,"0.0-1.0"
"44","06fl09fnsf","6983969b6ac55b26361bb853","creativity-rating","1","evaluation-gemini-2-patch","blind",4,"survey",NA,259874,710684,"0.0-4.0"
"45","06fl09fnsf","6983969b6ac55b26361bb853","creativity-free-response","The game is so basic, I didn't even understand how to move it until the very last try.","evaluation-gemini-2-patch","blind",4,"survey",NA,259874,710684,"0.0-4.0"
"46","06fl09fnsf","6983969b6ac55b26361bb853","originality-rating","1","evaluation-gemini-2-patch","blind",4,"survey",NA,259874,710684,"0.0-4.0"
"47","06fl09fnsf","6983969b6ac55b26361bb853","originality-free-response","There's nothing innovative about it; it's a game that's been around since the beginning of gaming in the 1980s.","evaluation-gemini-2-patch","blind",4,"survey",NA,259874,710684,"0.0-4.0"
"48","06fl09fnsf","6983969b6ac55b26361bb853","effectiveness-rating","1","evaluation-gemini-2-patch","blind",4,"survey",NA,259874,710684,"0.0-4.0"
"49","06fl09fnsf","6983969b6ac55b26361bb853","effectiveness-free-response","I'm so frustrated, I can't even move anything without trying so many times.","evaluation-gemini-2-patch","blind",4,"survey",NA,259874,710684,"0.0-4.0"
"50","06fl09fnsf","6983969b6ac55b26361bb853","authenticity-rating","1","evaluation-gemini-2-patch","blind",4,"survey",NA,259874,710684,"0.0-4.0"
"51","06fl09fnsf","6983969b6ac55b26361bb853","attention-check","3","evaluation-gemini-2-patch","blind",4,"survey",NA,259874,710684,"0.0-4.0"
"52","06fl09fnsf","6983969b6ac55b26361bb853","intentionality-rating","1","evaluation-gemini-2-patch","blind",4,"survey",NA,259874,710684,"0.0-4.0"
"53","06fl09fnsf","6983969b6ac55b26361bb853","authenticity-intentionality-free-response","I'm frustrated; I can't even move anything without trying, and I don't see any effort being made.","evaluation-gemini-2-patch","blind",4,"survey",NA,259874,710684,"0.0-4.0"
"54","06fl09fnsf","6983969b6ac55b26361bb853","concept-creativity-rating","3","concept-gemini-2-patch","blind",5,"survey",NA,522278,1232982,"0.0-5.0"
"55","06fl09fnsf","6983969b6ac55b26361bb853","concept-implementation-rating","1","concept-gemini-2-patch","blind",5,"survey",NA,522278,1232982,"0.0-5.0"
"56","06fl09fnsf","6983969b6ac55b26361bb853","creativity-rating","4","evaluation-gemini-6-redact","blind",8,"survey",NA,297377,1573161,"0.0-8.0"
"57","06fl09fnsf","6983969b6ac55b26361bb853","creativity-free-response","I thought the black column was the finish line, but it opens up a passage with several ideas. The writing makes for a good background game.","evaluation-gemini-6-redact","blind",8,"survey",NA,297377,1573161,"0.0-8.0"
"58","06fl09fnsf","6983969b6ac55b26361bb853","originality-rating","5","evaluation-gemini-6-redact","blind",8,"survey",NA,297377,1573161,"0.0-8.0"
"59","06fl09fnsf","6983969b6ac55b26361bb853","originality-free-response","I thought the black column was the finish line, but it opens up a passage with several ideas. Writing on the background of the game is good, and writing the word ""finish"" is like writing it on a piece of paper.","evaluation-gemini-6-redact","blind",8,"survey",NA,297377,1573161,"0.0-8.0"
"60","06fl09fnsf","6983969b6ac55b26361bb853","effectiveness-rating","3","evaluation-gemini-6-redact","blind",8,"survey",NA,297377,1573161,"0.0-8.0"
"61","06fl09fnsf","6983969b6ac55b26361bb853","effectiveness-free-response","I thought the black pillar was the finish line, but the passage opens with very slow movement.","evaluation-gemini-6-redact","blind",8,"survey",NA,297377,1573161,"0.0-8.0"
"62","06fl09fnsf","6983969b6ac55b26361bb853","authenticity-rating","5","evaluation-gemini-6-redact","blind",8,"survey",NA,297377,1573161,"0.0-8.0"
"63","06fl09fnsf","6983969b6ac55b26361bb853","attention-check","3","evaluation-gemini-6-redact","blind",8,"survey",NA,297377,1573161,"0.0-8.0"
"64","06fl09fnsf","6983969b6ac55b26361bb853","intentionality-rating","4","evaluation-gemini-6-redact","blind",8,"survey",NA,297377,1573161,"0.0-8.0"
"65","06fl09fnsf","6983969b6ac55b26361bb853","authenticity-intentionality-free-response","It has some new ideas, but it's a bit boring and slow, and seems somewhat mysterious.","evaluation-gemini-6-redact","blind",8,"survey",NA,297377,1573161,"0.0-8.0"
"66","06fl09fnsf","6983969b6ac55b26361bb853","concept-creativity-rating","4","concept-gemini-6-redact","blind",9,"survey",NA,36488,1609667,"0.0-9.0"
"67","06fl09fnsf","6983969b6ac55b26361bb853","concept-implementation-rating","4","concept-gemini-6-redact","blind",9,"survey",NA,36488,1609667,"0.0-9.0"
"68","06fl09fnsf","6983969b6ac55b26361bb853","creativity-rating","1","evaluation-claude-6-flame","blind",12,"survey",NA,147128,1933474,"0.0-12.0"
"69","06fl09fnsf","6983969b6ac55b26361bb853","creativity-free-response","I didn't understand anything, not even the purpose of the game.","evaluation-claude-6-flame","blind",12,"survey",NA,147128,1933474,"0.0-12.0"
"70","06fl09fnsf","6983969b6ac55b26361bb853","originality-rating","1","evaluation-claude-6-flame","blind",12,"survey",NA,147128,1933474,"0.0-12.0"
"71","06fl09fnsf","6983969b6ac55b26361bb853","originality-free-response","There are no innovations or surprises.","evaluation-claude-6-flame","blind",12,"survey",NA,147128,1933474,"0.0-12.0"
"72","06fl09fnsf","6983969b6ac55b26361bb853","effectiveness-rating","1","evaluation-claude-6-flame","blind",12,"survey",NA,147128,1933474,"0.0-12.0"
"73","06fl09fnsf","6983969b6ac55b26361bb853","effectiveness-free-response","It was unpleasant; I felt bored and wished the game would end.","evaluation-claude-6-flame","blind",12,"survey",NA,147128,1933474,"0.0-12.0"
"74","06fl09fnsf","6983969b6ac55b26361bb853","authenticity-rating","3","evaluation-claude-6-flame","blind",12,"survey",NA,147128,1933474,"0.0-12.0"
"75","06fl09fnsf","6983969b6ac55b26361bb853","attention-check","3","evaluation-claude-6-flame","blind",12,"survey",NA,147128,1933474,"0.0-12.0"
"76","06fl09fnsf","6983969b6ac55b26361bb853","intentionality-rating","1","evaluation-claude-6-flame","blind",12,"survey",NA,147128,1933474,"0.0-12.0"
"77","06fl09fnsf","6983969b6ac55b26361bb853","authenticity-intentionality-free-response","It was unpleasant; I felt bored and wished the game would end.","evaluation-claude-6-flame","blind",12,"survey",NA,147128,1933474,"0.0-12.0"
"78","06fl09fnsf","6983969b6ac55b26361bb853","concept-creativity-rating","1","concept-claude-6-flame","blind",13,"survey",NA,151700,2085190,"0.0-13.0"
"79","06fl09fnsf","6983969b6ac55b26361bb853","concept-implementation-rating","1","concept-claude-6-flame","blind",13,"survey",NA,151700,2085190,"0.0-13.0"
"80","06fl09fnsf","6983969b6ac55b26361bb853","baseline_originality_rating","1","baseline-questions-rating","blind",15,"survey",NA,36115,2125616,"0.0-15.0"
"81","06fl09fnsf","6983969b6ac55b26361bb853","baseline_effectiveness_rating","1","baseline-questions-rating","blind",15,"survey",NA,36115,2125616,"0.0-15.0"
"82","06fl09fnsf","6983969b6ac55b26361bb853","baseline_authenticity_rating","1","baseline-questions-rating","blind",15,"survey",NA,36115,2125616,"0.0-15.0"
"83","06fl09fnsf","6983969b6ac55b26361bb853","baseline_intentionality_rating","1","baseline-questions-rating","blind",15,"survey",NA,36115,2125616,"0.0-15.0"
"84","06fl09fnsf","6983969b6ac55b26361bb853","ai_blind_question","I would have answered the same questions. I felt from the beginning that there were strange things, and in the end, when she mentioned that it was B, I understood the reasons.","ai-blind-question","blind",16,"survey",NA,101694,2227316,"0.0-16.0"
"85","072cgefga8","677948fa843635fdb42a4351","commitment-check","yes","commitment-check","blind",1,"survey",NA,14680,24826,"0.0-1.0"
"86","072cgefga8","677948fa843635fdb42a4351","creativity-rating","5","evaluation-chat-3-orbit","blind",4,"survey",NA,598307,1403697,"0.0-4.0"
"87","072cgefga8","677948fa843635fdb42a4351","creativity-free-response","It was very confusing and complicated, I often struggle with those kind of games, also it required the player to be intuitive as there were barely any instructions given to help you.","evaluation-chat-3-orbit","blind",4,"survey",NA,598307,1403697,"0.0-4.0"
"88","072cgefga8","677948fa843635fdb42a4351","originality-rating","4","evaluation-chat-3-orbit","blind",4,"survey",NA,598307,1403697,"0.0-4.0"
"89","072cgefga8","677948fa843635fdb42a4351","originality-free-response","The incorporation of music and timing your actions to a beat was very new to me,.","evaluation-chat-3-orbit","blind",4,"survey",NA,598307,1403697,"0.0-4.0"
"90","072cgefga8","677948fa843635fdb42a4351","effectiveness-rating","1","evaluation-chat-3-orbit","blind",4,"survey",NA,598307,1403697,"0.0-4.0"
"91","072cgefga8","677948fa843635fdb42a4351","effectiveness-free-response","I struggle to catch on to newer games in general but that combined with the few instructions given really frustrated me and made me feel very stupid. The controls were also very janky and randomly stiff at times.","evaluation-chat-3-orbit","blind",4,"survey",NA,598307,1403697,"0.0-4.0"
"92","072cgefga8","677948fa843635fdb42a4351","authenticity-rating","4","evaluation-chat-3-orbit","blind",4,"survey",NA,598307,1403697,"0.0-4.0"
"93","072cgefga8","677948fa843635fdb42a4351","attention-check","3","evaluation-chat-3-orbit","blind",4,"survey",NA,598307,1403697,"0.0-4.0"
"94","072cgefga8","677948fa843635fdb42a4351","intentionality-rating","5","evaluation-chat-3-orbit","blind",4,"survey",NA,598307,1403697,"0.0-4.0"
"95","072cgefga8","677948fa843635fdb42a4351","authenticity-intentionality-free-response","I gave a 4 for the authentic rating feel as I feel as if the game is designed for people who are musically inclined as a lot of the game just seemed overly complicated, especially with the designs of the circles.
I rated intentionality and effort as a 5. There definitely is an intention to the game as I feel as if the games design and especially sound design is purposefully quiet and lo-fi like in order to suck you into the game.  I can only imagine the developer put a lot of effort into the game, the art style was cool and futuristic.
","evaluation-chat-3-orbit","blind",4,"survey",NA,598307,1403697,"0.0-4.0"
"96","072cgefga8","677948fa843635fdb42a4351","concept-creativity-rating","5","concept-chat-3-orbit","blind",5,"survey",NA,37917,1441631,"0.0-5.0"
"97","072cgefga8","677948fa843635fdb42a4351","concept-implementation-rating","3","concept-chat-3-orbit","blind",5,"survey",NA,37917,1441631,"0.0-5.0"
"98","072cgefga8","677948fa843635fdb42a4351","creativity-rating","3","evaluation-chat-1-echo","blind",8,"survey",NA,478666,2225600,"0.0-8.0"
"99","072cgefga8","677948fa843635fdb42a4351","creativity-free-response","It is a game that primarily relies on stealth and speed, I have played games like this before. I feel as if it is a combination of pac man and metal gear solid.","evaluation-chat-1-echo","blind",8,"survey",NA,478666,2225600,"0.0-8.0"
"100","072cgefga8","677948fa843635fdb42a4351","originality-rating","2","evaluation-chat-1-echo","blind",8,"survey",NA,478666,2225600,"0.0-8.0"
"101","072cgefga8","677948fa843635fdb42a4351","originality-free-response","It has a lot of the same mechanics you see in other stealth games. One thing I like though was the ability to use decoys, I found that very refreshing and unique.","evaluation-chat-1-echo","blind",8,"survey",NA,478666,2225600,"0.0-8.0"
"102","072cgefga8","677948fa843635fdb42a4351","effectiveness-rating","5","evaluation-chat-1-echo","blind",8,"survey",NA,478666,2225600,"0.0-8.0"
"103","072cgefga8","677948fa843635fdb42a4351","effectiveness-free-response","The instructions were clear and easier to understand. Also I really liked the tense situations the gameplay created, I was constantly on the edge of my seat wondering if I was going to get caught.","evaluation-chat-1-echo","blind",8,"survey",NA,478666,2225600,"0.0-8.0"
"104","072cgefga8","677948fa843635fdb42a4351","authenticity-rating","4","evaluation-chat-1-echo","blind",8,"survey",NA,478666,2225600,"0.0-8.0"
"105","072cgefga8","677948fa843635fdb42a4351","attention-check","3","evaluation-chat-1-echo","blind",8,"survey",NA,478666,2225600,"0.0-8.0"
"106","072cgefga8","677948fa843635fdb42a4351","intentionality-rating","4","evaluation-chat-1-echo","blind",8,"survey",NA,478666,2225600,"0.0-8.0"
"107","072cgefga8","677948fa843635fdb42a4351","authenticity-intentionality-free-response","authenticity: It plays like a lot of other stealth games, I don't think it is fair to call it a rip off though, it had quite a few unique features and the down to earth visuals really give an authentic indie feel to the game.
intentionality, and effort: the outlay of the puzzle I feel was very intentional, the developer obviously knows how to create tension in a video game and I don't think its possible to do that by accident or without a lot of effort.","evaluation-chat-1-echo","blind",8,"survey",NA,478666,2225600,"0.0-8.0"
"108","072cgefga8","677948fa843635fdb42a4351","concept-creativity-rating","5","concept-chat-1-echo","blind",9,"survey",NA,39425,2265041,"0.0-9.0"
"109","072cgefga8","677948fa843635fdb42a4351","concept-implementation-rating","4","concept-chat-1-echo","blind",9,"survey",NA,39425,2265041,"0.0-9.0"
"110","072cgefga8","677948fa843635fdb42a4351","creativity-rating","4","evaluation-claude-2-moth","blind",12,"survey",NA,344444,2971807,"0.0-12.0"
"111","072cgefga8","677948fa843635fdb42a4351","creativity-free-response","I really like the design of the game, the colours were very unique and not what I would expect in a game set in space. Also the controls were fun, especially the incorporation of the space bar.","evaluation-claude-2-moth","blind",12,"survey",NA,344444,2971807,"0.0-12.0"
"112","072cgefga8","677948fa843635fdb42a4351","originality-rating","4","evaluation-claude-2-moth","blind",12,"survey",NA,344444,2971807,"0.0-12.0"
"113","072cgefga8","677948fa843635fdb42a4351","originality-free-response","I don't think I've ever played a game like this before. Deciding when to rest your video game character really made me think and plan out my journey.","evaluation-claude-2-moth","blind",12,"survey",NA,344444,2971807,"0.0-12.0"
"114","072cgefga8","677948fa843635fdb42a4351","effectiveness-rating","4","evaluation-claude-2-moth","blind",12,"survey",NA,344444,2971807,"0.0-12.0"
"115","072cgefga8","677948fa843635fdb42a4351","effectiveness-free-response","It was really fun, the game loop was very enjoyable and made me want to improve on the next go. My ability to control my character was very stable and really smooth.","evaluation-claude-2-moth","blind",12,"survey",NA,344444,2971807,"0.0-12.0"
"116","072cgefga8","677948fa843635fdb42a4351","authenticity-rating","4","evaluation-claude-2-moth","blind",12,"survey",NA,344444,2971807,"0.0-12.0"
"117","072cgefga8","677948fa843635fdb42a4351","attention-check","3","evaluation-claude-2-moth","blind",12,"survey",NA,344444,2971807,"0.0-12.0"
"118","072cgefga8","677948fa843635fdb42a4351","intentionality-rating","4","evaluation-claude-2-moth","blind",12,"survey",NA,344444,2971807,"0.0-12.0"
"119","072cgefga8","677948fa843635fdb42a4351","authenticity-intentionality-free-response","authenticity: The setting was unique, even though it reminds me of playing mobile games I cant seem to to remember specifically what games it reminds me off.
 intentionality, and effort: The limitations of the character I was playing made me really think the game was perfectly tuned and play tested before hand.","evaluation-claude-2-moth","blind",12,"survey",NA,344444,2971807,"0.0-12.0"
"120","072cgefga8","677948fa843635fdb42a4351","concept-creativity-rating","5","concept-claude-2-moth","blind",13,"survey",NA,25075,2996897,"0.0-13.0"
"121","072cgefga8","677948fa843635fdb42a4351","concept-implementation-rating","5","concept-claude-2-moth","blind",13,"survey",NA,25075,2996897,"0.0-13.0"
"122","072cgefga8","677948fa843635fdb42a4351","baseline_originality_rating","4","baseline-questions-rating","blind",15,"survey",NA,9960,3009522,"0.0-15.0"
"123","072cgefga8","677948fa843635fdb42a4351","baseline_effectiveness_rating","4","baseline-questions-rating","blind",15,"survey",NA,9960,3009522,"0.0-15.0"
"124","072cgefga8","677948fa843635fdb42a4351","baseline_authenticity_rating","4","baseline-questions-rating","blind",15,"survey",NA,9960,3009522,"0.0-15.0"
"125","072cgefga8","677948fa843635fdb42a4351","baseline_intentionality_rating","4","baseline-questions-rating","blind",15,"survey",NA,9960,3009522,"0.0-15.0"
"126","072cgefga8","677948fa843635fdb42a4351","ai_blind_question","Yes, I always assumed the friction the game created was intentional  and a creative decision, now i just feel as if these are a result of bad AI programming.","ai-blind-question","blind",16,"survey",NA,70184,3079717,"0.0-16.0"
"127","11oyl8fqd0","5cd0909f6e2d5800163ed5de","commitment-check","yes","commitment-check","aware",1,"survey",NA,15959,23616,"0.0-1.0"
"128","11oyl8fqd0","5cd0909f6e2d5800163ed5de","creativity-rating","1","evaluation-gemini-2-patch","aware",4,"survey",NA,114966,175773,"0.0-4.0"
"129","11oyl8fqd0","5cd0909f6e2d5800163ed5de","creativity-free-response","it was uncreative and unplayable i could not do anything, in faact it was not a game but some sort of video playing on its own. There was just a rectangle going from left to right","evaluation-gemini-2-patch","aware",4,"survey",NA,114966,175773,"0.0-4.0"
"130","11oyl8fqd0","5cd0909f6e2d5800163ed5de","originality-rating","1","evaluation-gemini-2-patch","aware",4,"survey",NA,114966,175773,"0.0-4.0"
"131","11oyl8fqd0","5cd0909f6e2d5800163ed5de","originality-free-response","a rectangle goin on its own from left to right","evaluation-gemini-2-patch","aware",4,"survey",NA,114966,175773,"0.0-4.0"
"132","11oyl8fqd0","5cd0909f6e2d5800163ed5de","effectiveness-rating","1","evaluation-gemini-2-patch","aware",4,"survey",NA,114966,175773,"0.0-4.0"
"133","11oyl8fqd0","5cd0909f6e2d5800163ed5de","effectiveness-free-response","I could not do anything","evaluation-gemini-2-patch","aware",4,"survey",NA,114966,175773,"0.0-4.0"
"134","11oyl8fqd0","5cd0909f6e2d5800163ed5de","authenticity-rating","1","evaluation-gemini-2-patch","aware",4,"survey",NA,114966,175773,"0.0-4.0"
"135","11oyl8fqd0","5cd0909f6e2d5800163ed5de","attention-check","3","evaluation-gemini-2-patch","aware",4,"survey",NA,114966,175773,"0.0-4.0"
"136","11oyl8fqd0","5cd0909f6e2d5800163ed5de","intentionality-rating","1","evaluation-gemini-2-patch","aware",4,"survey",NA,114966,175773,"0.0-4.0"
"137","11oyl8fqd0","5cd0909f6e2d5800163ed5de","authenticity-intentionality-free-response","that game sucked and was not good at all","evaluation-gemini-2-patch","aware",4,"survey",NA,114966,175773,"0.0-4.0"
"138","11oyl8fqd0","5cd0909f6e2d5800163ed5de","concept-creativity-rating","1","concept-gemini-2-patch","aware",5,"survey",NA,62317,238103,"0.0-5.0"
"139","11oyl8fqd0","5cd0909f6e2d5800163ed5de","concept-implementation-rating","1","concept-gemini-2-patch","aware",5,"survey",NA,62317,238103,"0.0-5.0"
"140","11oyl8fqd0","5cd0909f6e2d5800163ed5de","creativity-rating","4","evaluation-gemini-5-rename","aware",8,"survey",NA,97524,416309,"0.0-8.0"
"141","11oyl8fqd0","5cd0909f6e2d5800163ed5de","creativity-free-response","I could change objcets with just renaming those it was really creative","evaluation-gemini-5-rename","aware",8,"survey",NA,97524,416309,"0.0-8.0"
"142","11oyl8fqd0","5cd0909f6e2d5800163ed5de","originality-rating","4","evaluation-gemini-5-rename","aware",8,"survey",NA,97524,416309,"0.0-8.0"
"143","11oyl8fqd0","5cd0909f6e2d5800163ed5de","originality-free-response","it was cool to change objects names and puropuses","evaluation-gemini-5-rename","aware",8,"survey",NA,97524,416309,"0.0-8.0"
"144","11oyl8fqd0","5cd0909f6e2d5800163ed5de","effectiveness-rating","4","evaluation-gemini-5-rename","aware",8,"survey",NA,97524,416309,"0.0-8.0"
"145","11oyl8fqd0","5cd0909f6e2d5800163ed5de","effectiveness-free-response","it was good, renaming objects was really enjoyable","evaluation-gemini-5-rename","aware",8,"survey",NA,97524,416309,"0.0-8.0"
"146","11oyl8fqd0","5cd0909f6e2d5800163ed5de","attention-check","3","evaluation-gemini-5-rename","aware",8,"survey",NA,97524,416309,"0.0-8.0"
"147","11oyl8fqd0","5cd0909f6e2d5800163ed5de","authenticity-rating","4","evaluation-gemini-5-rename","aware",8,"survey",NA,97524,416309,"0.0-8.0"
"148","11oyl8fqd0","5cd0909f6e2d5800163ed5de","intentionality-rating","4","evaluation-gemini-5-rename","aware",8,"survey",NA,97524,416309,"0.0-8.0"
"149","11oyl8fqd0","5cd0909f6e2d5800163ed5de","authenticity-intentionality-free-response","I havent heard of similiar game with changing objects names","evaluation-gemini-5-rename","aware",8,"survey",NA,97524,416309,"0.0-8.0"
"150","11oyl8fqd0","5cd0909f6e2d5800163ed5de","concept-creativity-rating","4","concept-gemini-5-rename","aware",9,"survey",NA,8250,424572,"0.0-9.0"
"151","11oyl8fqd0","5cd0909f6e2d5800163ed5de","concept-implementation-rating","4","concept-gemini-5-rename","aware",9,"survey",NA,8250,424572,"0.0-9.0"
"152","11oyl8fqd0","5cd0909f6e2d5800163ed5de","creativity-rating","4","evaluation-claude-6-flame","aware",12,"survey",NA,103799,769661,"0.0-12.0"
"153","11oyl8fqd0","5cd0909f6e2d5800163ed5de","creativity-free-response","guing the little faity to lite was pretty creative","evaluation-claude-6-flame","aware",12,"survey",NA,103799,769661,"0.0-12.0"
"154","11oyl8fqd0","5cd0909f6e2d5800163ed5de","originality-rating","4","evaluation-claude-6-flame","aware",12,"survey",NA,103799,769661,"0.0-12.0"
"155","11oyl8fqd0","5cd0909f6e2d5800163ed5de","originality-free-response","it was really original, graphic, gameplay","evaluation-claude-6-flame","aware",12,"survey",NA,103799,769661,"0.0-12.0"
"156","11oyl8fqd0","5cd0909f6e2d5800163ed5de","effectiveness-rating","2","evaluation-claude-6-flame","aware",12,"survey",NA,103799,769661,"0.0-12.0"
"157","11oyl8fqd0","5cd0909f6e2d5800163ed5de","effectiveness-free-response","it was pretty slow and faity acted like slow thinking it should be faster as its responding to the light","evaluation-claude-6-flame","aware",12,"survey",NA,103799,769661,"0.0-12.0"
"158","11oyl8fqd0","5cd0909f6e2d5800163ed5de","attention-check","3","evaluation-claude-6-flame","aware",12,"survey",NA,103799,769661,"0.0-12.0"
"159","11oyl8fqd0","5cd0909f6e2d5800163ed5de","authenticity-rating","4","evaluation-claude-6-flame","aware",12,"survey",NA,103799,769661,"0.0-12.0"
"160","11oyl8fqd0","5cd0909f6e2d5800163ed5de","intentionality-rating","5","evaluation-claude-6-flame","aware",12,"survey",NA,103799,769661,"0.0-12.0"
"161","11oyl8fqd0","5cd0909f6e2d5800163ed5de","authenticity-intentionality-free-response","going to the light brung me idea of some insect in real life","evaluation-claude-6-flame","aware",12,"survey",NA,103799,769661,"0.0-12.0"
"162","11oyl8fqd0","5cd0909f6e2d5800163ed5de","concept-creativity-rating","4","concept-claude-6-flame","aware",13,"survey",NA,26145,795819,"0.0-13.0"
"163","11oyl8fqd0","5cd0909f6e2d5800163ed5de","concept-implementation-rating","4","concept-claude-6-flame","aware",13,"survey",NA,26145,795819,"0.0-13.0"
"164","11oyl8fqd0","5cd0909f6e2d5800163ed5de","baseline_originality_rating","4","baseline-questions-rating","aware",15,"survey",NA,8739,808581,"0.0-15.0"
"165","11oyl8fqd0","5cd0909f6e2d5800163ed5de","baseline_effectiveness_rating","5","baseline-questions-rating","aware",15,"survey",NA,8739,808581,"0.0-15.0"
"166","11oyl8fqd0","5cd0909f6e2d5800163ed5de","baseline_authenticity_rating","4","baseline-questions-rating","aware",15,"survey",NA,8739,808581,"0.0-15.0"
"167","11oyl8fqd0","5cd0909f6e2d5800163ed5de","baseline_intentionality_rating","5","baseline-questions-rating","aware",15,"survey",NA,8739,808581,"0.0-15.0"
"168","11oyl8fqd0","5cd0909f6e2d5800163ed5de","ai_aware_question","yes, AI is incredible but it seems is still learning many things maybe in future it will be able to build entire games","ai-aware-question","aware",16,"survey",NA,37132,845721,"0.0-16.0"
"169","1m3f9jmu15","698dfb569c22eca3eb8b65fa","commitment-check","yes","commitment-check","blind",1,"survey",NA,11210,30106,"0.0-1.0"
"170","1m3f9jmu15","698dfb569c22eca3eb8b65fa","creativity-rating","1","evaluation-gemini-4-substratum","blind",4,"survey",NA,160222,433690,"0.0-4.0"
"171","1m3f9jmu15","698dfb569c22eca3eb8b65fa","creativity-free-response","For me it was a game crated only to annoy people playing it.","evaluation-gemini-4-substratum","blind",4,"survey",NA,160222,433690,"0.0-4.0"
"172","1m3f9jmu15","698dfb569c22eca3eb8b65fa","originality-rating","2","evaluation-gemini-4-substratum","blind",4,"survey",NA,160222,433690,"0.0-4.0"
"173","1m3f9jmu15","698dfb569c22eca3eb8b65fa","originality-free-response","2D game, no wasd usage only mouse, maybe you had to use your brain a little and that's all, kinda looks like geometry dash for poor people","evaluation-gemini-4-substratum","blind",4,"survey",NA,160222,433690,"0.0-4.0"
"174","1m3f9jmu15","698dfb569c22eca3eb8b65fa","effectiveness-rating","1","evaluation-gemini-4-substratum","blind",4,"survey",NA,160222,433690,"0.0-4.0"
"175","1m3f9jmu15","698dfb569c22eca3eb8b65fa","effectiveness-free-response","It was frustrating all the time, this game is create to frustrate people while playing.","evaluation-gemini-4-substratum","blind",4,"survey",NA,160222,433690,"0.0-4.0"
"176","1m3f9jmu15","698dfb569c22eca3eb8b65fa","authenticity-rating","1","evaluation-gemini-4-substratum","blind",4,"survey",NA,160222,433690,"0.0-4.0"
"177","1m3f9jmu15","698dfb569c22eca3eb8b65fa","attention-check","3","evaluation-gemini-4-substratum","blind",4,"survey",NA,160222,433690,"0.0-4.0"
"178","1m3f9jmu15","698dfb569c22eca3eb8b65fa","intentionality-rating","2","evaluation-gemini-4-substratum","blind",4,"survey",NA,160222,433690,"0.0-4.0"
"179","1m3f9jmu15","698dfb569c22eca3eb8b65fa","authenticity-intentionality-free-response","When it comes to authetnticity I feel like I saw this game before, nothing special. About effort this game looks like vibe coded in 5 minutes.","evaluation-gemini-4-substratum","blind",4,"survey",NA,160222,433690,"0.0-4.0"
"180","1m3f9jmu15","698dfb569c22eca3eb8b65fa","concept-creativity-rating","3","concept-gemini-4-substratum","blind",5,"survey",NA,32984,466687,"0.0-5.0"
"181","1m3f9jmu15","698dfb569c22eca3eb8b65fa","concept-implementation-rating","5","concept-gemini-4-substratum","blind",5,"survey",NA,32984,466687,"0.0-5.0"
"182","1m3f9jmu15","698dfb569c22eca3eb8b65fa","creativity-rating","4","evaluation-chat-6-tidepainter","blind",8,"survey",NA,266334,1740764,"0.0-8.0"
"183","1m3f9jmu15","698dfb569c22eca3eb8b65fa","creativity-free-response","I've seen a game like this first time. The conception and mechanics were interesting. I like games where you need to think a little bit, when I lost I wasn't frustrated I was thinking how can I fix that to finally get those purple balls.","evaluation-chat-6-tidepainter","blind",8,"survey",NA,266334,1740764,"0.0-8.0"
"184","1m3f9jmu15","698dfb569c22eca3eb8b65fa","originality-rating","5","evaluation-chat-6-tidepainter","blind",8,"survey",NA,266334,1740764,"0.0-8.0"
"185","1m3f9jmu15","698dfb569c22eca3eb8b65fa","originality-free-response","I feel like this game is original because I've never seen those game mechanics.","evaluation-chat-6-tidepainter","blind",8,"survey",NA,266334,1740764,"0.0-8.0"
"186","1m3f9jmu15","698dfb569c22eca3eb8b65fa","effectiveness-rating","4","evaluation-chat-6-tidepainter","blind",8,"survey",NA,266334,1740764,"0.0-8.0"
"187","1m3f9jmu15","698dfb569c22eca3eb8b65fa","effectiveness-free-response","I had to think, I was losing but I wasn't frustrated. This game was created really well and I can't tell which part was enjoyable, because I enjoyed whole game.","evaluation-chat-6-tidepainter","blind",8,"survey",NA,266334,1740764,"0.0-8.0"
"188","1m3f9jmu15","698dfb569c22eca3eb8b65fa","authenticity-rating","5","evaluation-chat-6-tidepainter","blind",8,"survey",NA,266334,1740764,"0.0-8.0"
"189","1m3f9jmu15","698dfb569c22eca3eb8b65fa","attention-check","3","evaluation-chat-6-tidepainter","blind",8,"survey",NA,266334,1740764,"0.0-8.0"
"190","1m3f9jmu15","698dfb569c22eca3eb8b65fa","intentionality-rating","3","evaluation-chat-6-tidepainter","blind",8,"survey",NA,266334,1740764,"0.0-8.0"
"191","1m3f9jmu15","698dfb569c22eca3eb8b65fa","authenticity-intentionality-free-response","I feel it's authentic because this game mechanics are for me something new. When it comes to developers effort I give 3 for game idea, but I don't really like 2D games with graphics like that, so the dev doesn't really put the effort into graphics.","evaluation-chat-6-tidepainter","blind",8,"survey",NA,266334,1740764,"0.0-8.0"
"192","1m3f9jmu15","698dfb569c22eca3eb8b65fa","concept-creativity-rating","3","concept-chat-6-tidepainter","blind",9,"survey",NA,31495,1772272,"0.0-9.0"
"193","1m3f9jmu15","698dfb569c22eca3eb8b65fa","concept-implementation-rating","4","concept-chat-6-tidepainter","blind",9,"survey",NA,31495,1772272,"0.0-9.0"
"194","1m3f9jmu15","698dfb569c22eca3eb8b65fa","creativity-rating","5","evaluation-gemini-5-rename","blind",12,"survey",NA,244884,2053433,"0.0-12.0"
"195","1m3f9jmu15","698dfb569c22eca3eb8b65fa","creativity-free-response","You can feel like some sort of a game dev. With more levels this game could be really interesting to play for like 1-2 hours.","evaluation-gemini-5-rename","blind",12,"survey",NA,244884,2053433,"0.0-12.0"
"196","1m3f9jmu15","698dfb569c22eca3eb8b65fa","originality-rating","5","evaluation-gemini-5-rename","blind",12,"survey",NA,244884,2053433,"0.0-12.0"
"197","1m3f9jmu15","698dfb569c22eca3eb8b65fa","originality-free-response","I've never seen a game mechanic like that where you can litteraly edit the game objects yourself by renaming it, the wole idea was a surprise for me.","evaluation-gemini-5-rename","blind",12,"survey",NA,244884,2053433,"0.0-12.0"
"198","1m3f9jmu15","698dfb569c22eca3eb8b65fa","effectiveness-rating","4","evaluation-gemini-5-rename","blind",12,"survey",NA,244884,2053433,"0.0-12.0"
"199","1m3f9jmu15","698dfb569c22eca3eb8b65fa","effectiveness-free-response","The game feels really enjoyable, because maybe not in this 1st level but if only the game were more extensive you would have to use your brain and think to pass the levels.","evaluation-gemini-5-rename","blind",12,"survey",NA,244884,2053433,"0.0-12.0"
"200","1m3f9jmu15","698dfb569c22eca3eb8b65fa","authenticity-rating","5","evaluation-gemini-5-rename","blind",12,"survey",NA,244884,2053433,"0.0-12.0"
"201","1m3f9jmu15","698dfb569c22eca3eb8b65fa","attention-check","3","evaluation-gemini-5-rename","blind",12,"survey",NA,244884,2053433,"0.0-12.0"
"202","1m3f9jmu15","698dfb569c22eca3eb8b65fa","intentionality-rating","5","evaluation-gemini-5-rename","blind",12,"survey",NA,244884,2053433,"0.0-12.0"
"203","1m3f9jmu15","698dfb569c22eca3eb8b65fa","authenticity-intentionality-free-response","This game was extremely authentic because this game mechanic was something new and it was a brilliant idea. When it comes to effort, I think the dev put a lot of effort to get the idea for game mechanics. The graphics are also okay, I think that's how the game should be looking to have this atmosphere.","evaluation-gemini-5-rename","blind",12,"survey",NA,244884,2053433,"0.0-12.0"
"204","1m3f9jmu15","698dfb569c22eca3eb8b65fa","concept-creativity-rating","5","concept-gemini-5-rename","blind",13,"survey",NA,14500,2067946,"0.0-13.0"
"205","1m3f9jmu15","698dfb569c22eca3eb8b65fa","concept-implementation-rating","5","concept-gemini-5-rename","blind",13,"survey",NA,14500,2067946,"0.0-13.0"
"206","1m3f9jmu15","698dfb569c22eca3eb8b65fa","baseline_originality_rating","4","baseline-questions-rating","blind",15,"survey",NA,26516,2096891,"0.0-15.0"
"207","1m3f9jmu15","698dfb569c22eca3eb8b65fa","baseline_effectiveness_rating","4","baseline-questions-rating","blind",15,"survey",NA,26516,2096891,"0.0-15.0"
"208","1m3f9jmu15","698dfb569c22eca3eb8b65fa","baseline_authenticity_rating","3","baseline-questions-rating","blind",15,"survey",NA,26516,2096891,"0.0-15.0"
"209","1m3f9jmu15","698dfb569c22eca3eb8b65fa","baseline_intentionality_rating","3","baseline-questions-rating","blind",15,"survey",NA,26516,2096891,"0.0-15.0"
"210","1m3f9jmu15","698dfb569c22eca3eb8b65fa","ai_blind_question","No, I felt like every of this game was vibe coded and it's ok.","ai-blind-question","blind",16,"survey",NA,37030,2133926,"0.0-16.0"
"211","1svckrsvc2","698efa571f78c2fb8bc759fc","commitment-check","yes","commitment-check","blind",1,"survey",NA,9505,18163,"0.0-1.0"
"212","1svckrsvc2","698efa571f78c2fb8bc759fc","creativity-rating","4","evaluation-claude-2-moth","blind",4,"survey",NA,550662,651858,"0.0-4.0"
"213","1svckrsvc2","698efa571f78c2fb8bc759fc","creativity-free-response","Interesting concept of playing as a Moth trying to reach the moon while maintaining stamina, although the speed of the moth is too fast in my opinion","evaluation-claude-2-moth","blind",4,"survey",NA,550662,651858,"0.0-4.0"
"214","1svckrsvc2","698efa571f78c2fb8bc759fc","originality-rating","4","evaluation-claude-2-moth","blind",4,"survey",NA,550662,651858,"0.0-4.0"
"215","1svckrsvc2","698efa571f78c2fb8bc759fc","originality-free-response","Never played or seen a game before where you play as a moth, the surprise were the smooth controls","evaluation-claude-2-moth","blind",4,"survey",NA,550662,651858,"0.0-4.0"
"216","1svckrsvc2","698efa571f78c2fb8bc759fc","effectiveness-rating","4","evaluation-claude-2-moth","blind",4,"survey",NA,550662,651858,"0.0-4.0"
"217","1svckrsvc2","698efa571f78c2fb8bc759fc","effectiveness-free-response","The controls were enjoyable and the scenery, the speed which moth flies up was too fast though.","evaluation-claude-2-moth","blind",4,"survey",NA,550662,651858,"0.0-4.0"
"218","1svckrsvc2","698efa571f78c2fb8bc759fc","authenticity-rating","4","evaluation-claude-2-moth","blind",4,"survey",NA,550662,651858,"0.0-4.0"
"219","1svckrsvc2","698efa571f78c2fb8bc759fc","attention-check","3","evaluation-claude-2-moth","blind",4,"survey",NA,550662,651858,"0.0-4.0"
"220","1svckrsvc2","698efa571f78c2fb8bc759fc","intentionality-rating","4","evaluation-claude-2-moth","blind",4,"survey",NA,550662,651858,"0.0-4.0"
"221","1svckrsvc2","698efa571f78c2fb8bc759fc","authenticity-intentionality-free-response","It looks like the developer put his heart and time in it to make something that no one ever tried to make before","evaluation-claude-2-moth","blind",4,"survey",NA,550662,651858,"0.0-4.0"
"222","1svckrsvc2","698efa571f78c2fb8bc759fc","concept-creativity-rating","4","concept-claude-2-moth","blind",5,"survey",NA,66098,717973,"0.0-5.0"
"223","1svckrsvc2","698efa571f78c2fb8bc759fc","concept-implementation-rating","3","concept-claude-2-moth","blind",5,"survey",NA,66098,717973,"0.0-5.0"
"224","1svckrsvc2","698efa571f78c2fb8bc759fc","creativity-rating","5","evaluation-gemini-5-rename","blind",8,"survey",NA,127768,926488,"0.0-8.0"
"225","1svckrsvc2","698efa571f78c2fb8bc759fc","creativity-free-response","Having the ability to rename objects to make them change into whatever you want, for example:from a wall to a wall that you can pass through.","evaluation-gemini-5-rename","blind",8,"survey",NA,127768,926488,"0.0-8.0"
"226","1svckrsvc2","698efa571f78c2fb8bc759fc","originality-rating","4","evaluation-gemini-5-rename","blind",8,"survey",NA,127768,926488,"0.0-8.0"
"227","1svckrsvc2","698efa571f78c2fb8bc759fc","originality-free-response","The ability to make your own path and having to think which object to change into what","evaluation-gemini-5-rename","blind",8,"survey",NA,127768,926488,"0.0-8.0"
"228","1svckrsvc2","698efa571f78c2fb8bc759fc","effectiveness-rating","3","evaluation-gemini-5-rename","blind",8,"survey",NA,127768,926488,"0.0-8.0"
"229","1svckrsvc2","698efa571f78c2fb8bc759fc","effectiveness-free-response","The concept of giving the player freedom of choice was good, the graphics and quality were very old looking.","evaluation-gemini-5-rename","blind",8,"survey",NA,127768,926488,"0.0-8.0"
"230","1svckrsvc2","698efa571f78c2fb8bc759fc","attention-check","3","evaluation-gemini-5-rename","blind",8,"survey",NA,127768,926488,"0.0-8.0"
"231","1svckrsvc2","698efa571f78c2fb8bc759fc","authenticity-rating","3","evaluation-gemini-5-rename","blind",8,"survey",NA,127768,926488,"0.0-8.0"
"232","1svckrsvc2","698efa571f78c2fb8bc759fc","intentionality-rating","2","evaluation-gemini-5-rename","blind",8,"survey",NA,127768,926488,"0.0-8.0"
"233","1svckrsvc2","698efa571f78c2fb8bc759fc","authenticity-intentionality-free-response","I think it's just a fun side project and not meant to be a full on game, but its a cool concept.","evaluation-gemini-5-rename","blind",8,"survey",NA,127768,926488,"0.0-8.0"
"234","1svckrsvc2","698efa571f78c2fb8bc759fc","concept-creativity-rating","3","concept-gemini-5-rename","blind",9,"survey",NA,73594,1000100,"0.0-9.0"
"235","1svckrsvc2","698efa571f78c2fb8bc759fc","concept-implementation-rating","4","concept-gemini-5-rename","blind",9,"survey",NA,73594,1000100,"0.0-9.0"
"236","1svckrsvc2","698efa571f78c2fb8bc759fc","creativity-rating","3","evaluation-gemini-6-redact","blind",12,"survey",NA,156159,1191450,"0.0-12.0"
"237","1svckrsvc2","698efa571f78c2fb8bc759fc","creativity-free-response","I actually dont know what to answer to this question as the game was buggy and I dont even know what happened","evaluation-gemini-6-redact","blind",12,"survey",NA,156159,1191450,"0.0-12.0"
"238","1svckrsvc2","698efa571f78c2fb8bc759fc","originality-rating","4","evaluation-gemini-6-redact","blind",12,"survey",NA,156159,1191450,"0.0-12.0"
"239","1svckrsvc2","698efa571f78c2fb8bc759fc","originality-free-response","It seemed like an original idea with the cube dragging along the wall","evaluation-gemini-6-redact","blind",12,"survey",NA,156159,1191450,"0.0-12.0"
"240","1svckrsvc2","698efa571f78c2fb8bc759fc","effectiveness-rating","1","evaluation-gemini-6-redact","blind",12,"survey",NA,156159,1191450,"0.0-12.0"
"241","1svckrsvc2","698efa571f78c2fb8bc759fc","effectiveness-free-response","It felt very weird and sluggish, the cube was very slow and I don't even know how I got past the level","evaluation-gemini-6-redact","blind",12,"survey",NA,156159,1191450,"0.0-12.0"
"242","1svckrsvc2","698efa571f78c2fb8bc759fc","authenticity-rating","3","evaluation-gemini-6-redact","blind",12,"survey",NA,156159,1191450,"0.0-12.0"
"243","1svckrsvc2","698efa571f78c2fb8bc759fc","attention-check","3","evaluation-gemini-6-redact","blind",12,"survey",NA,156159,1191450,"0.0-12.0"
"244","1svckrsvc2","698efa571f78c2fb8bc759fc","intentionality-rating","2","evaluation-gemini-6-redact","blind",12,"survey",NA,156159,1191450,"0.0-12.0"
"245","1svckrsvc2","698efa571f78c2fb8bc759fc","authenticity-intentionality-free-response","Game had black color and it looked very, empty and soulless","evaluation-gemini-6-redact","blind",12,"survey",NA,156159,1191450,"0.0-12.0"
"246","1svckrsvc2","698efa571f78c2fb8bc759fc","concept-creativity-rating","4","concept-gemini-6-redact","blind",13,"survey",NA,16594,1208059,"0.0-13.0"
"247","1svckrsvc2","698efa571f78c2fb8bc759fc","concept-implementation-rating","2","concept-gemini-6-redact","blind",13,"survey",NA,16594,1208059,"0.0-13.0"
"248","1svckrsvc2","698efa571f78c2fb8bc759fc","baseline_originality_rating","4","baseline-questions-rating","blind",15,"survey",NA,18513,1228916,"0.0-15.0"
"249","1svckrsvc2","698efa571f78c2fb8bc759fc","baseline_effectiveness_rating","5","baseline-questions-rating","blind",15,"survey",NA,18513,1228916,"0.0-15.0"
"250","1svckrsvc2","698efa571f78c2fb8bc759fc","baseline_authenticity_rating","3","baseline-questions-rating","blind",15,"survey",NA,18513,1228916,"0.0-15.0"
"251","1svckrsvc2","698efa571f78c2fb8bc759fc","baseline_intentionality_rating","3","baseline-questions-rating","blind",15,"survey",NA,18513,1228916,"0.0-15.0"
"252","1svckrsvc2","698efa571f78c2fb8bc759fc","ai_blind_question","Yes, AI, like humans, still make mistakes, sometimes even bigger mistakes than humans and I could actually see these games being made by AI. On the third game the text overlapped over itself and the third game felt, weird.","ai-blind-question","blind",16,"survey",NA,59126,1288047,"0.0-16.0"
"253","1y0okya8tt","6926452ca418f7b008a000a3","commitment-check","yes","commitment-check","aware",1,"survey",NA,14422,31694,"0.0-1.0"
"254","1y0okya8tt","6926452ca418f7b008a000a3","creativity-rating","4","evaluation-gemini-2-patch","aware",4,"survey",NA,672302,758230,"0.0-4.0"
"255","1y0okya8tt","6926452ca418f7b008a000a3","creativity-free-response","I think the idea behind this game was to be able to manipulate the game itself through some form of rudimentary programming, which is something you don't see that often, thus I feel is fairly creative. ","evaluation-gemini-2-patch","aware",4,"survey",NA,672302,758230,"0.0-4.0"
"256","1y0okya8tt","6926452ca418f7b008a000a3","originality-rating","2","evaluation-gemini-2-patch","aware",4,"survey",NA,672302,758230,"0.0-4.0"
"257","1y0okya8tt","6926452ca418f7b008a000a3","originality-free-response","The presentation was a little lacking I feel, there were simply standard blocks of colors to represent a bit of a retro look. The initial presentation also came across as overwhelming; there was a lot happening on the screen all at once with unclear instructions as to what to actually do.","evaluation-gemini-2-patch","aware",4,"survey",NA,672302,758230,"0.0-4.0"
"258","1y0okya8tt","6926452ca418f7b008a000a3","effectiveness-rating","1","evaluation-gemini-2-patch","aware",4,"survey",NA,672302,758230,"0.0-4.0"
"259","1y0okya8tt","6926452ca418f7b008a000a3","effectiveness-free-response","The execution and playability of the game was a bit lackluster, it seemed to barely work at all. It was rather unclear what to do and what input would cause what function to happen.","evaluation-gemini-2-patch","aware",4,"survey",NA,672302,758230,"0.0-4.0"
"260","1y0okya8tt","6926452ca418f7b008a000a3","authenticity-rating","3","evaluation-gemini-2-patch","aware",4,"survey",NA,672302,758230,"0.0-4.0"
"261","1y0okya8tt","6926452ca418f7b008a000a3","attention-check","3","evaluation-gemini-2-patch","aware",4,"survey",NA,672302,758230,"0.0-4.0"
"262","1y0okya8tt","6926452ca418f7b008a000a3","intentionality-rating","2","evaluation-gemini-2-patch","aware",4,"survey",NA,672302,758230,"0.0-4.0"
"263","1y0okya8tt","6926452ca418f7b008a000a3","authenticity-intentionality-free-response","This is a bit hard to answer since it's been revealed that the games have been developed by AI. Assuming there was a significant amount of human input though I feel like the idea behind the game could be authentic, but, like I mentioned before, it felt hardly playable. So in short; good idea but not very playable.","evaluation-gemini-2-patch","aware",4,"survey",NA,672302,758230,"0.0-4.0"
"264","1y0okya8tt","6926452ca418f7b008a000a3","concept-creativity-rating","5","concept-gemini-2-patch","aware",5,"survey",NA,29778,788033,"0.0-5.0"
"265","1y0okya8tt","6926452ca418f7b008a000a3","concept-implementation-rating","3","concept-gemini-2-patch","aware",5,"survey",NA,29778,788033,"0.0-5.0"
"266","1y0okya8tt","6926452ca418f7b008a000a3","creativity-rating","3","evaluation-chat-6-tidepainter","aware",8,"survey",NA,926230,2175119,"0.0-8.0"
"267","1y0okya8tt","6926452ca418f7b008a000a3","creativity-free-response","It seems like a fairly simple puzzle game, something you would see quite often. There could however be a hidden depth to it that I couldn't see during my first impression where you can really unlock the 'potential' of this game.","evaluation-chat-6-tidepainter","aware",8,"survey",NA,926230,2175119,"0.0-8.0"
"268","1y0okya8tt","6926452ca418f7b008a000a3","originality-rating","2","evaluation-chat-6-tidepainter","aware",8,"survey",NA,926230,2175119,"0.0-8.0"
"269","1y0okya8tt","6926452ca418f7b008a000a3","originality-free-response","The overall presentation of the game could do with some more effort, it looks and feels really simple. It was however almost immediately clear what you have to do in the game so whilst the look and feel is simple it is very clear. 
The mechanic of guiding the flow towards specific goals isn't very original but could be very fun, especially if there was more emphasis on perhaps some sort of physics.","evaluation-chat-6-tidepainter","aware",8,"survey",NA,926230,2175119,"0.0-8.0"
"270","1y0okya8tt","6926452ca418f7b008a000a3","effectiveness-rating","3","evaluation-chat-6-tidepainter","aware",8,"survey",NA,926230,2175119,"0.0-8.0"
"271","1y0okya8tt","6926452ca418f7b008a000a3","effectiveness-free-response","The initial presentation made it quite clear what the goal of the game was and how to achieve it. The mechanic of guiding the flow towards the goals, which is, I believe, the main point of the game was quite enjoyable. The more frustrating part of that mechanic was the freezing after every wave hit and having to click the tiles instead of being able to drag a path.","evaluation-chat-6-tidepainter","aware",8,"survey",NA,926230,2175119,"0.0-8.0"
"272","1y0okya8tt","6926452ca418f7b008a000a3","authenticity-rating","3","evaluation-chat-6-tidepainter","aware",8,"survey",NA,926230,2175119,"0.0-8.0"
"273","1y0okya8tt","6926452ca418f7b008a000a3","attention-check","3","evaluation-chat-6-tidepainter","aware",8,"survey",NA,926230,2175119,"0.0-8.0"
"274","1y0okya8tt","6926452ca418f7b008a000a3","intentionality-rating","2","evaluation-chat-6-tidepainter","aware",8,"survey",NA,926230,2175119,"0.0-8.0"
"275","1y0okya8tt","6926452ca418f7b008a000a3","authenticity-intentionality-free-response","The game idea isn't very original and I feel like the mechanics need a lot of extra fleshing out for it to be something truly enjoyable.","evaluation-chat-6-tidepainter","aware",8,"survey",NA,926230,2175119,"0.0-8.0"
"276","1y0okya8tt","6926452ca418f7b008a000a3","concept-creativity-rating","4","concept-chat-6-tidepainter","aware",9,"survey",NA,44668,2219807,"0.0-9.0"
"277","1y0okya8tt","6926452ca418f7b008a000a3","concept-implementation-rating","2","concept-chat-6-tidepainter","aware",9,"survey",NA,44668,2219807,"0.0-9.0"
"278","1y0okya8tt","6926452ca418f7b008a000a3","creativity-rating","4","evaluation-chat-3-orbit","aware",12,"survey",NA,703208,3218875,"0.0-12.0"
"279","1y0okya8tt","6926452ca418f7b008a000a3","creativity-free-response","The presentation in combination with an audio based rythm game made the game stand out more from the other two, there also seems to be some sort of hidden layer to this one which gives it something extra.","evaluation-chat-3-orbit","aware",12,"survey",NA,703208,3218875,"0.0-12.0"
"280","1y0okya8tt","6926452ca418f7b008a000a3","originality-rating","4","evaluation-chat-3-orbit","aware",12,"survey",NA,703208,3218875,"0.0-12.0"
"281","1y0okya8tt","6926452ca418f7b008a000a3","originality-free-response","The combination of audio and the colorful presentation in a space-like environment gave it a pleasant look and made it, in my opinion, the most fun game so far to interact with.","evaluation-chat-3-orbit","aware",12,"survey",NA,703208,3218875,"0.0-12.0"
"282","1y0okya8tt","6926452ca418f7b008a000a3","effectiveness-rating","4","evaluation-chat-3-orbit","aware",12,"survey",NA,703208,3218875,"0.0-12.0"
"283","1y0okya8tt","6926452ca418f7b008a000a3","effectiveness-free-response","The concept of launching the 'balls' on the rythm of the music seems like a good idea and works decently, however I feel like it should be fleshed out a bit more since it seems easier to 'win' at the game by just spamming the mouse button.
The audible and visual feedback of the balls being launched and creating the sounds was pretty enjoyable though!","evaluation-chat-3-orbit","aware",12,"survey",NA,703208,3218875,"0.0-12.0"
"284","1y0okya8tt","6926452ca418f7b008a000a3","authenticity-rating","4","evaluation-chat-3-orbit","aware",12,"survey",NA,703208,3218875,"0.0-12.0"
"285","1y0okya8tt","6926452ca418f7b008a000a3","attention-check","3","evaluation-chat-3-orbit","aware",12,"survey",NA,703208,3218875,"0.0-12.0"
"286","1y0okya8tt","6926452ca418f7b008a000a3","intentionality-rating","4","evaluation-chat-3-orbit","aware",12,"survey",NA,703208,3218875,"0.0-12.0"
"287","1y0okya8tt","6926452ca418f7b008a000a3","authenticity-intentionality-free-response","Whilst there is a lot left to update in the game, I feel, I believe there was a solid idea behind this game which made it so that, in my opinion, this specific game felt the most like a complete 'game'. The execution and idea feels the most like a proper vision here.","evaluation-chat-3-orbit","aware",12,"survey",NA,703208,3218875,"0.0-12.0"
"288","1y0okya8tt","6926452ca418f7b008a000a3","concept-creativity-rating","4","concept-chat-3-orbit","aware",13,"survey",NA,29358,3248254,"0.0-13.0"
"289","1y0okya8tt","6926452ca418f7b008a000a3","concept-implementation-rating","3","concept-chat-3-orbit","aware",13,"survey",NA,29358,3248254,"0.0-13.0"
"290","1y0okya8tt","6926452ca418f7b008a000a3","baseline_originality_rating","4","baseline-questions-rating","aware",15,"survey",NA,43094,3295252,"0.0-15.0"
"291","1y0okya8tt","6926452ca418f7b008a000a3","baseline_effectiveness_rating","5","baseline-questions-rating","aware",15,"survey",NA,43094,3295252,"0.0-15.0"
"292","1y0okya8tt","6926452ca418f7b008a000a3","baseline_authenticity_rating","4","baseline-questions-rating","aware",15,"survey",NA,43094,3295252,"0.0-15.0"
"293","1y0okya8tt","6926452ca418f7b008a000a3","baseline_intentionality_rating","5","baseline-questions-rating","aware",15,"survey",NA,43094,3295252,"0.0-15.0"
"294","1y0okya8tt","6926452ca418f7b008a000a3","ai_aware_question","Yes they were, I went in with the expectation to not see complete games where the gameplay and visuals probably weren't going to be a finished product yet at all either. I treated them as initial concepts and ideas on which a developer would be able to expand on.","ai-aware-question","aware",16,"survey",NA,160995,3456257,"0.0-16.0"
"295","281w3mga8h","69346587dfdffc1057144d32","commitment-check","yes","commitment-check","blind",1,"survey",NA,8756,100031,"0.0-1.0"
"296","281w3mga8h","69346587dfdffc1057144d32","creativity-rating","5","evaluation-chat-3-orbit","blind",4,"survey",NA,82500,475111,"0.0-4.0"
"297","281w3mga8h","69346587dfdffc1057144d32","creativity-free-response","It made it creative because of the music","evaluation-chat-3-orbit","blind",4,"survey",NA,82500,475111,"0.0-4.0"
"298","281w3mga8h","69346587dfdffc1057144d32","originality-rating","5","evaluation-chat-3-orbit","blind",4,"survey",NA,82500,475111,"0.0-4.0"
"299","281w3mga8h","69346587dfdffc1057144d32","originality-free-response","The shooting ball felt original","evaluation-chat-3-orbit","blind",4,"survey",NA,82500,475111,"0.0-4.0"
"300","281w3mga8h","69346587dfdffc1057144d32","effectiveness-rating","2","evaluation-chat-3-orbit","blind",4,"survey",NA,82500,475111,"0.0-4.0"
"301","281w3mga8h","69346587dfdffc1057144d32","effectiveness-free-response","It was a bit boring because of low engament","evaluation-chat-3-orbit","blind",4,"survey",NA,82500,475111,"0.0-4.0"
"302","281w3mga8h","69346587dfdffc1057144d32","authenticity-rating","5","evaluation-chat-3-orbit","blind",4,"survey",NA,82500,475111,"0.0-4.0"
"303","281w3mga8h","69346587dfdffc1057144d32","attention-check","3","evaluation-chat-3-orbit","blind",4,"survey",NA,82500,475111,"0.0-4.0"
"304","281w3mga8h","69346587dfdffc1057144d32","intentionality-rating","3","evaluation-chat-3-orbit","blind",4,"survey",NA,82500,475111,"0.0-4.0"
"305","281w3mga8h","69346587dfdffc1057144d32","authenticity-intentionality-free-response","It was authentic because I have never played something like before, I didn't feel the reflection","evaluation-chat-3-orbit","blind",4,"survey",NA,82500,475111,"0.0-4.0"
"306","281w3mga8h","69346587dfdffc1057144d32","concept-creativity-rating","4","concept-chat-3-orbit","blind",5,"survey",NA,12143,487271,"0.0-5.0"
"307","281w3mga8h","69346587dfdffc1057144d32","concept-implementation-rating","2","concept-chat-3-orbit","blind",5,"survey",NA,12143,487271,"0.0-5.0"
"308","281w3mga8h","69346587dfdffc1057144d32","creativity-rating","2","evaluation-claude-2-moth","blind",8,"survey",NA,86100,647335,"0.0-8.0"
"309","281w3mga8h","69346587dfdffc1057144d32","creativity-free-response","It was unacreative because of no music and felt like it was made with ai","evaluation-claude-2-moth","blind",8,"survey",NA,86100,647335,"0.0-8.0"
"310","281w3mga8h","69346587dfdffc1057144d32","originality-rating","1","evaluation-claude-2-moth","blind",8,"survey",NA,86100,647335,"0.0-8.0"
"311","281w3mga8h","69346587dfdffc1057144d32","originality-free-response","It was very bland and no colors ","evaluation-claude-2-moth","blind",8,"survey",NA,86100,647335,"0.0-8.0"
"312","281w3mga8h","69346587dfdffc1057144d32","effectiveness-rating","2","evaluation-claude-2-moth","blind",8,"survey",NA,86100,647335,"0.0-8.0"
"313","281w3mga8h","69346587dfdffc1057144d32","effectiveness-free-response","Meh it was a bit enjoyable but not too much action","evaluation-claude-2-moth","blind",8,"survey",NA,86100,647335,"0.0-8.0"
"314","281w3mga8h","69346587dfdffc1057144d32","authenticity-rating","5","evaluation-claude-2-moth","blind",8,"survey",NA,86100,647335,"0.0-8.0"
"315","281w3mga8h","69346587dfdffc1057144d32","attention-check","3","evaluation-claude-2-moth","blind",8,"survey",NA,86100,647335,"0.0-8.0"
"316","281w3mga8h","69346587dfdffc1057144d32","intentionality-rating","1","evaluation-claude-2-moth","blind",8,"survey",NA,86100,647335,"0.0-8.0"
"317","281w3mga8h","69346587dfdffc1057144d32","authenticity-intentionality-free-response","It was authentich but I'm not sure about the efforts, it felt like cheaply made","evaluation-claude-2-moth","blind",8,"survey",NA,86100,647335,"0.0-8.0"
"318","281w3mga8h","69346587dfdffc1057144d32","concept-creativity-rating","2","concept-claude-2-moth","blind",9,"survey",NA,4381,651727,"0.0-9.0"
"319","281w3mga8h","69346587dfdffc1057144d32","concept-implementation-rating","3","concept-claude-2-moth","blind",9,"survey",NA,4381,651727,"0.0-9.0"
"320","281w3mga8h","69346587dfdffc1057144d32","creativity-rating","2","evaluation-claude-3-bureaucromancer","blind",12,"survey",NA,85051,1094632,"0.0-12.0"
"321","281w3mga8h","69346587dfdffc1057144d32","creativity-free-response","It felt like ""papers please"" copy","evaluation-claude-3-bureaucromancer","blind",12,"survey",NA,85051,1094632,"0.0-12.0"
"322","281w3mga8h","69346587dfdffc1057144d32","originality-rating","2","evaluation-claude-3-bureaucromancer","blind",12,"survey",NA,85051,1094632,"0.0-12.0"
"323","281w3mga8h","69346587dfdffc1057144d32","originality-free-response","It was bland and too much information, plus not very original","evaluation-claude-3-bureaucromancer","blind",12,"survey",NA,85051,1094632,"0.0-12.0"
"324","281w3mga8h","69346587dfdffc1057144d32","effectiveness-rating","2","evaluation-claude-3-bureaucromancer","blind",12,"survey",NA,85051,1094632,"0.0-12.0"
"325","281w3mga8h","69346587dfdffc1057144d32","effectiveness-free-response","it was difficult and boring too because of too much text","evaluation-claude-3-bureaucromancer","blind",12,"survey",NA,85051,1094632,"0.0-12.0"
"326","281w3mga8h","69346587dfdffc1057144d32","authenticity-rating","1","evaluation-claude-3-bureaucromancer","blind",12,"survey",NA,85051,1094632,"0.0-12.0"
"327","281w3mga8h","69346587dfdffc1057144d32","attention-check","3","evaluation-claude-3-bureaucromancer","blind",12,"survey",NA,85051,1094632,"0.0-12.0"
"328","281w3mga8h","69346587dfdffc1057144d32","intentionality-rating","2","evaluation-claude-3-bureaucromancer","blind",12,"survey",NA,85051,1094632,"0.0-12.0"
"329","281w3mga8h","69346587dfdffc1057144d32","authenticity-intentionality-free-response","cheaply made ""papers please"" copy","evaluation-claude-3-bureaucromancer","blind",12,"survey",NA,85051,1094632,"0.0-12.0"
"330","281w3mga8h","69346587dfdffc1057144d32","concept-creativity-rating","1","concept-claude-3-bureaucromancer","blind",13,"survey",NA,3779,1098421,"0.0-13.0"
"331","281w3mga8h","69346587dfdffc1057144d32","concept-implementation-rating","2","concept-claude-3-bureaucromancer","blind",13,"survey",NA,3779,1098421,"0.0-13.0"
"332","281w3mga8h","69346587dfdffc1057144d32","baseline_originality_rating","3","baseline-questions-rating","blind",15,"survey",NA,9174,1110977,"0.0-15.0"
"333","281w3mga8h","69346587dfdffc1057144d32","baseline_effectiveness_rating","2","baseline-questions-rating","blind",15,"survey",NA,9174,1110977,"0.0-15.0"
"334","281w3mga8h","69346587dfdffc1057144d32","baseline_authenticity_rating","4","baseline-questions-rating","blind",15,"survey",NA,9174,1110977,"0.0-15.0"
"335","281w3mga8h","69346587dfdffc1057144d32","baseline_intentionality_rating","4","baseline-questions-rating","blind",15,"survey",NA,9174,1110977,"0.0-15.0"
"336","281w3mga8h","69346587dfdffc1057144d32","ai_blind_question","Not really I already had a feeling they were made with ai","ai-blind-question","blind",16,"survey",NA,20477,1131461,"0.0-16.0"
"337","2ub4bsohcl","697a679cc7a5c19b7b777538","commitment-check","yes","commitment-check","blind",1,"survey",NA,10362,20495,"0.0-1.0"
"338","2ub4bsohcl","697a679cc7a5c19b7b777538","creativity-rating","3","evaluation-claude-5-cartographer","blind",4,"survey",NA,214067,572063,"0.0-4.0"
"339","2ub4bsohcl","697a679cc7a5c19b7b777538","creativity-free-response","its a uncommon game type, but i found it not engaging.","evaluation-claude-5-cartographer","blind",4,"survey",NA,214067,572063,"0.0-4.0"
"340","2ub4bsohcl","697a679cc7a5c19b7b777538","originality-rating","3","evaluation-claude-5-cartographer","blind",4,"survey",NA,214067,572063,"0.0-4.0"
"341","2ub4bsohcl","697a679cc7a5c19b7b777538","originality-free-response","The ink protecting the cities is original.","evaluation-claude-5-cartographer","blind",4,"survey",NA,214067,572063,"0.0-4.0"
"342","2ub4bsohcl","697a679cc7a5c19b7b777538","effectiveness-rating","2","evaluation-claude-5-cartographer","blind",4,"survey",NA,214067,572063,"0.0-4.0"
"343","2ub4bsohcl","697a679cc7a5c19b7b777538","effectiveness-free-response","i didnt like it. It was really confusing at the start and the gameplay isnt engaging.","evaluation-claude-5-cartographer","blind",4,"survey",NA,214067,572063,"0.0-4.0"
"344","2ub4bsohcl","697a679cc7a5c19b7b777538","authenticity-rating","3","evaluation-claude-5-cartographer","blind",4,"survey",NA,214067,572063,"0.0-4.0"
"345","2ub4bsohcl","697a679cc7a5c19b7b777538","attention-check","3","evaluation-claude-5-cartographer","blind",4,"survey",NA,214067,572063,"0.0-4.0"
"346","2ub4bsohcl","697a679cc7a5c19b7b777538","intentionality-rating","2","evaluation-claude-5-cartographer","blind",4,"survey",NA,214067,572063,"0.0-4.0"
"347","2ub4bsohcl","697a679cc7a5c19b7b777538","authenticity-intentionality-free-response","Its a original idea, and the intention is good, but its really rough, need more polish.","evaluation-claude-5-cartographer","blind",4,"survey",NA,214067,572063,"0.0-4.0"
"348","2ub4bsohcl","697a679cc7a5c19b7b777538","concept-creativity-rating","4","concept-claude-5-cartographer","blind",5,"survey",NA,29766,601840,"0.0-5.0"
"349","2ub4bsohcl","697a679cc7a5c19b7b777538","concept-implementation-rating","2","concept-claude-5-cartographer","blind",5,"survey",NA,29766,601840,"0.0-5.0"
"350","2ub4bsohcl","697a679cc7a5c19b7b777538","creativity-rating","4","evaluation-chat-4-courier","blind",8,"survey",NA,179994,874937,"0.0-8.0"
"351","2ub4bsohcl","697a679cc7a5c19b7b777538","creativity-free-response","Its a cool idea, keep off the black area, while going for the marked circles","evaluation-chat-4-courier","blind",8,"survey",NA,179994,874937,"0.0-8.0"
"352","2ub4bsohcl","697a679cc7a5c19b7b777538","originality-rating","4","evaluation-chat-4-courier","blind",8,"survey",NA,179994,874937,"0.0-8.0"
"353","2ub4bsohcl","697a679cc7a5c19b7b777538","originality-free-response","its a simple game but cool, the rotating parts who help you have a safe-spot are original.","evaluation-chat-4-courier","blind",8,"survey",NA,179994,874937,"0.0-8.0"
"354","2ub4bsohcl","697a679cc7a5c19b7b777538","effectiveness-rating","4","evaluation-chat-4-courier","blind",8,"survey",NA,179994,874937,"0.0-8.0"
"355","2ub4bsohcl","697a679cc7a5c19b7b777538","effectiveness-free-response","its a fun game. having to avoid too much time in the black areas and rotating the things are a cool concept.","evaluation-chat-4-courier","blind",8,"survey",NA,179994,874937,"0.0-8.0"
"356","2ub4bsohcl","697a679cc7a5c19b7b777538","authenticity-rating","4","evaluation-chat-4-courier","blind",8,"survey",NA,179994,874937,"0.0-8.0"
"357","2ub4bsohcl","697a679cc7a5c19b7b777538","attention-check","3","evaluation-chat-4-courier","blind",8,"survey",NA,179994,874937,"0.0-8.0"
"358","2ub4bsohcl","697a679cc7a5c19b7b777538","intentionality-rating","4","evaluation-chat-4-courier","blind",8,"survey",NA,179994,874937,"0.0-8.0"
"359","2ub4bsohcl","697a679cc7a5c19b7b777538","authenticity-intentionality-free-response","its a cool game that do its own thing, while having good gameplay and fun challenge.","evaluation-chat-4-courier","blind",8,"survey",NA,179994,874937,"0.0-8.0"
"360","2ub4bsohcl","697a679cc7a5c19b7b777538","concept-creativity-rating","4","concept-chat-4-courier","blind",9,"survey",NA,21885,896834,"0.0-9.0"
"361","2ub4bsohcl","697a679cc7a5c19b7b777538","concept-implementation-rating","1","concept-chat-4-courier","blind",9,"survey",NA,21885,896834,"0.0-9.0"
"362","2ub4bsohcl","697a679cc7a5c19b7b777538","creativity-rating","2","evaluation-chat-2-murmuration","blind",12,"survey",NA,109814,1491982,"0.0-12.0"
"363","2ub4bsohcl","697a679cc7a5c19b7b777538","creativity-free-response","The game idea was good, the final product was really bad","evaluation-chat-2-murmuration","blind",12,"survey",NA,109814,1491982,"0.0-12.0"
"364","2ub4bsohcl","697a679cc7a5c19b7b777538","originality-rating","3","evaluation-chat-2-murmuration","blind",12,"survey",NA,109814,1491982,"0.0-12.0"
"365","2ub4bsohcl","697a679cc7a5c19b7b777538","originality-free-response","good idea, controling the way, the tightness, etc ","evaluation-chat-2-murmuration","blind",12,"survey",NA,109814,1491982,"0.0-12.0"
"366","2ub4bsohcl","697a679cc7a5c19b7b777538","effectiveness-rating","1","evaluation-chat-2-murmuration","blind",12,"survey",NA,109814,1491982,"0.0-12.0"
"367","2ub4bsohcl","697a679cc7a5c19b7b777538","effectiveness-free-response","the game was terrible, really confusing, slow, didnt work well.","evaluation-chat-2-murmuration","blind",12,"survey",NA,109814,1491982,"0.0-12.0"
"368","2ub4bsohcl","697a679cc7a5c19b7b777538","authenticity-rating","2","evaluation-chat-2-murmuration","blind",12,"survey",NA,109814,1491982,"0.0-12.0"
"369","2ub4bsohcl","697a679cc7a5c19b7b777538","attention-check","3","evaluation-chat-2-murmuration","blind",12,"survey",NA,109814,1491982,"0.0-12.0"
"370","2ub4bsohcl","697a679cc7a5c19b7b777538","intentionality-rating","1","evaluation-chat-2-murmuration","blind",12,"survey",NA,109814,1491982,"0.0-12.0"
"371","2ub4bsohcl","697a679cc7a5c19b7b777538","authenticity-intentionality-free-response","The game idea was good, the gameplay was terrible","evaluation-chat-2-murmuration","blind",12,"survey",NA,109814,1491982,"0.0-12.0"
"372","2ub4bsohcl","697a679cc7a5c19b7b777538","concept-creativity-rating","5","concept-chat-2-murmuration","blind",13,"survey",NA,12158,1504151,"0.0-13.0"
"373","2ub4bsohcl","697a679cc7a5c19b7b777538","concept-implementation-rating","1","concept-chat-2-murmuration","blind",13,"survey",NA,12158,1504151,"0.0-13.0"
"374","2ub4bsohcl","697a679cc7a5c19b7b777538","baseline_originality_rating","5","baseline-questions-rating","blind",15,"survey",NA,38323,1545164,"0.0-15.0"
"375","2ub4bsohcl","697a679cc7a5c19b7b777538","baseline_effectiveness_rating","5","baseline-questions-rating","blind",15,"survey",NA,38323,1545164,"0.0-15.0"
"376","2ub4bsohcl","697a679cc7a5c19b7b777538","baseline_authenticity_rating","5","baseline-questions-rating","blind",15,"survey",NA,38323,1545164,"0.0-15.0"
"377","2ub4bsohcl","697a679cc7a5c19b7b777538","baseline_intentionality_rating","5","baseline-questions-rating","blind",15,"survey",NA,38323,1545164,"0.0-15.0"
"378","2ub4bsohcl","697a679cc7a5c19b7b777538","ai_blind_question","no, i rated as it was, the first and second one were passable, the third was terrible. Ai cant know what is fun.","ai-blind-question","blind",16,"survey",NA,73568,1618738,"0.0-16.0"
"379","2xzo4t1947","699c8b77fb904ad725023f28","commitment-check","yes","commitment-check","aware",1,"survey",NA,39758,50965,"0.0-1.0"
"380","2xzo4t1947","699c8b77fb904ad725023f28","creativity-rating","4","evaluation-chat-2-murmuration","aware",4,"survey",NA,315982,1061900,"0.0-4.0"
"381","2xzo4t1947","699c8b77fb904ad725023f28","creativity-free-response","It was a good idea that I haven't seen before in other games, guiding a group of birds with your mouse could be a really fun game","evaluation-chat-2-murmuration","aware",4,"survey",NA,315982,1061900,"0.0-4.0"
"382","2xzo4t1947","699c8b77fb904ad725023f28","originality-rating","4","evaluation-chat-2-murmuration","aware",4,"survey",NA,315982,1061900,"0.0-4.0"
"383","2xzo4t1947","699c8b77fb904ad725023f28","originality-free-response","The mechanic of moving a group of entities (birds in this case) with your mouse, guiding them, calling them, scattering them, and also controlling how close of eachother they are, is a really original mechanic that I haven't seen before in other games","evaluation-chat-2-murmuration","aware",4,"survey",NA,315982,1061900,"0.0-4.0"
"384","2xzo4t1947","699c8b77fb904ad725023f28","effectiveness-rating","3","evaluation-chat-2-murmuration","aware",4,"survey",NA,315982,1061900,"0.0-4.0"
"385","2xzo4t1947","699c8b77fb904ad725023f28","effectiveness-free-response","I encountered a few bugs so that is why I put it at a rating of 3, but overall the game could be really fun if it gets more polished","evaluation-chat-2-murmuration","aware",4,"survey",NA,315982,1061900,"0.0-4.0"
"386","2xzo4t1947","699c8b77fb904ad725023f28","authenticity-rating","4","evaluation-chat-2-murmuration","aware",4,"survey",NA,315982,1061900,"0.0-4.0"
"387","2xzo4t1947","699c8b77fb904ad725023f28","attention-check","3","evaluation-chat-2-murmuration","aware",4,"survey",NA,315982,1061900,"0.0-4.0"
"388","2xzo4t1947","699c8b77fb904ad725023f28","intentionality-rating","3","evaluation-chat-2-murmuration","aware",4,"survey",NA,315982,1061900,"0.0-4.0"
"389","2xzo4t1947","699c8b77fb904ad725023f28","authenticity-intentionality-free-response","The main mechanic/idea of this game is really unique but it needs a bit more work put into it, the game is at an extremely early stage, but once it gets polished, it's going to be really fun","evaluation-chat-2-murmuration","aware",4,"survey",NA,315982,1061900,"0.0-4.0"
"390","2xzo4t1947","699c8b77fb904ad725023f28","concept-creativity-rating","5","concept-chat-2-murmuration","aware",5,"survey",NA,37234,1099147,"0.0-5.0"
"391","2xzo4t1947","699c8b77fb904ad725023f28","concept-implementation-rating","5","concept-chat-2-murmuration","aware",5,"survey",NA,37234,1099147,"0.0-5.0"
"392","2xzo4t1947","699c8b77fb904ad725023f28","creativity-rating","5","evaluation-chat-4-courier","aware",8,"survey",NA,190345,1393634,"0.0-8.0"
"393","2xzo4t1947","699c8b77fb904ad725023f28","creativity-free-response","It is extremely creative in that you not only control the main character, but you also control the enviroment to be able to complete the level","evaluation-chat-4-courier","aware",8,"survey",NA,190345,1393634,"0.0-8.0"
"394","2xzo4t1947","699c8b77fb904ad725023f28","originality-rating","4","evaluation-chat-4-courier","aware",8,"survey",NA,190345,1393634,"0.0-8.0"
"395","2xzo4t1947","699c8b77fb904ad725023f28","originality-free-response","Controlling the enviroment to complete your objective feels very original","evaluation-chat-4-courier","aware",8,"survey",NA,190345,1393634,"0.0-8.0"
"396","2xzo4t1947","699c8b77fb904ad725023f28","effectiveness-rating","4","evaluation-chat-4-courier","aware",8,"survey",NA,190345,1393634,"0.0-8.0"
"397","2xzo4t1947","699c8b77fb904ad725023f28","effectiveness-free-response","the exposure meter was a bit fast but overall the game was very enjoyable","evaluation-chat-4-courier","aware",8,"survey",NA,190345,1393634,"0.0-8.0"
"398","2xzo4t1947","699c8b77fb904ad725023f28","authenticity-rating","4","evaluation-chat-4-courier","aware",8,"survey",NA,190345,1393634,"0.0-8.0"
"399","2xzo4t1947","699c8b77fb904ad725023f28","attention-check","3","evaluation-chat-4-courier","aware",8,"survey",NA,190345,1393634,"0.0-8.0"
"400","2xzo4t1947","699c8b77fb904ad725023f28","intentionality-rating","4","evaluation-chat-4-courier","aware",8,"survey",NA,190345,1393634,"0.0-8.0"
"401","2xzo4t1947","699c8b77fb904ad725023f28","authenticity-intentionality-free-response","The core mechanics are great, they are very authentic, but it needs a bit more effort ","evaluation-chat-4-courier","aware",8,"survey",NA,190345,1393634,"0.0-8.0"
"402","2xzo4t1947","699c8b77fb904ad725023f28","concept-creativity-rating","5","concept-chat-4-courier","aware",9,"survey",NA,26078,1419721,"0.0-9.0"
"403","2xzo4t1947","699c8b77fb904ad725023f28","concept-implementation-rating","5","concept-chat-4-courier","aware",9,"survey",NA,26078,1419721,"0.0-9.0"
"404","2xzo4t1947","699c8b77fb904ad725023f28","creativity-rating","3","evaluation-gemini-3-suture","aware",12,"survey",NA,218218,1663283,"0.0-12.0"
"405","2xzo4t1947","699c8b77fb904ad725023f28","creativity-free-response","There are several games that requires you to ""slash"" the screen to make the level possible to complete, be it making bridges, destroying obstacles, etc","evaluation-gemini-3-suture","aware",12,"survey",NA,218218,1663283,"0.0-12.0"
"406","2xzo4t1947","699c8b77fb904ad725023f28","originality-rating","3","evaluation-gemini-3-suture","aware",12,"survey",NA,218218,1663283,"0.0-12.0"
"407","2xzo4t1947","699c8b77fb904ad725023f28","originality-free-response","I've seen games that uses the mechanic this game has, but that doesn't mean that is a bad game","evaluation-gemini-3-suture","aware",12,"survey",NA,218218,1663283,"0.0-12.0"
"408","2xzo4t1947","699c8b77fb904ad725023f28","effectiveness-rating","2","evaluation-gemini-3-suture","aware",12,"survey",NA,218218,1663283,"0.0-12.0"
"409","2xzo4t1947","699c8b77fb904ad725023f28","effectiveness-free-response","It was very simple and short, Didn't get enough time to experiment with it","evaluation-gemini-3-suture","aware",12,"survey",NA,218218,1663283,"0.0-12.0"
"410","2xzo4t1947","699c8b77fb904ad725023f28","authenticity-rating","3","evaluation-gemini-3-suture","aware",12,"survey",NA,218218,1663283,"0.0-12.0"
"411","2xzo4t1947","699c8b77fb904ad725023f28","attention-check","3","evaluation-gemini-3-suture","aware",12,"survey",NA,218218,1663283,"0.0-12.0"
"412","2xzo4t1947","699c8b77fb904ad725023f28","intentionality-rating","3","evaluation-gemini-3-suture","aware",12,"survey",NA,218218,1663283,"0.0-12.0"
"413","2xzo4t1947","699c8b77fb904ad725023f28","authenticity-intentionality-free-response","It's an idea that several games already use, the demo was really short and simple","evaluation-gemini-3-suture","aware",12,"survey",NA,218218,1663283,"0.0-12.0"
"414","2xzo4t1947","699c8b77fb904ad725023f28","concept-creativity-rating","3","concept-gemini-3-suture","aware",13,"survey",NA,24939,1688232,"0.0-13.0"
"415","2xzo4t1947","699c8b77fb904ad725023f28","concept-implementation-rating","2","concept-gemini-3-suture","aware",13,"survey",NA,24939,1688232,"0.0-13.0"
"416","2xzo4t1947","699c8b77fb904ad725023f28","baseline_originality_rating","5","baseline-questions-rating","aware",15,"survey",NA,16099,1707973,"0.0-15.0"
"417","2xzo4t1947","699c8b77fb904ad725023f28","baseline_effectiveness_rating","4","baseline-questions-rating","aware",15,"survey",NA,16099,1707973,"0.0-15.0"
"418","2xzo4t1947","699c8b77fb904ad725023f28","baseline_authenticity_rating","5","baseline-questions-rating","aware",15,"survey",NA,16099,1707973,"0.0-15.0"
"419","2xzo4t1947","699c8b77fb904ad725023f28","baseline_intentionality_rating","5","baseline-questions-rating","aware",15,"survey",NA,16099,1707973,"0.0-15.0"
"420","2xzo4t1947","699c8b77fb904ad725023f28","ai_aware_question","Not at all, I feel like AI is a very powerful tool for making video games I don't have any problem with AI making games such as this","ai-aware-question","aware",16,"survey",NA,48589,1756567,"0.0-16.0"
"421","396tw1vsba","6989c0c01b2e93d5d8f2e20a","commitment-check","yes","commitment-check","blind",1,"survey",NA,16197,24590,"0.0-1.0"
"422","396tw1vsba","6989c0c01b2e93d5d8f2e20a","creativity-rating","4","evaluation-gemini-4-substratum","blind",4,"survey",NA,600741,779985,"0.0-4.0"
"423","396tw1vsba","6989c0c01b2e93d5d8f2e20a","creativity-free-response","the creative things are :it has some new mechanics that i didnt experience in other games, like being able to move the whole platform that the subjects move on not like the ordinary where the player get to control the subject itself

the uncreative things: it hasnt got any good visuals so that the game be more immersive and entertaining, also the control of the platform by the mouse was kinda hard and it sometimes glitched out when the mouse gets out of the screen","evaluation-gemini-4-substratum","blind",4,"survey",NA,600741,779985,"0.0-4.0"
"424","396tw1vsba","6989c0c01b2e93d5d8f2e20a","originality-rating","4","evaluation-gemini-4-substratum","blind",4,"survey",NA,600741,779985,"0.0-4.0"
"425","396tw1vsba","6989c0c01b2e93d5d8f2e20a","originality-free-response","yeah the mechanics of moving the platform and not controlling the subject it self was a great and creative idea but the aesthetics werent good and they kinda look like other games like geometry dash","evaluation-gemini-4-substratum","blind",4,"survey",NA,600741,779985,"0.0-4.0"
"426","396tw1vsba","6989c0c01b2e93d5d8f2e20a","effectiveness-rating","3","evaluation-gemini-4-substratum","blind",4,"survey",NA,600741,779985,"0.0-4.0"
"427","396tw1vsba","6989c0c01b2e93d5d8f2e20a","effectiveness-free-response","its was interesting and tempting to try and beat the challenge of every round but i was frustrated about the controls using the mouse as the platform that i dragged using the mouse sometimes glitched out when the mouse got off the screen","evaluation-gemini-4-substratum","blind",4,"survey",NA,600741,779985,"0.0-4.0"
"428","396tw1vsba","6989c0c01b2e93d5d8f2e20a","authenticity-rating","2","evaluation-gemini-4-substratum","blind",4,"survey",NA,600741,779985,"0.0-4.0"
"429","396tw1vsba","6989c0c01b2e93d5d8f2e20a","attention-check","3","evaluation-gemini-4-substratum","blind",4,"survey",NA,600741,779985,"0.0-4.0"
"430","396tw1vsba","6989c0c01b2e93d5d8f2e20a","intentionality-rating","4","evaluation-gemini-4-substratum","blind",4,"survey",NA,600741,779985,"0.0-4.0"
"431","396tw1vsba","6989c0c01b2e93d5d8f2e20a","authenticity-intentionality-free-response","from the authenticity point of view the game wasnt kinda authentic as the visuals were a bit cheap and kinda looked like another game which is geometry dash regardless of the creative and new play style. i think the developer intended to make a new-playstyle game but didnt pay much effort in the aesthetics but nonetheless he did a great effort creating a new mechanic for the game and it was pretty interesting","evaluation-gemini-4-substratum","blind",4,"survey",NA,600741,779985,"0.0-4.0"
"432","396tw1vsba","6989c0c01b2e93d5d8f2e20a","concept-creativity-rating","4","concept-gemini-4-substratum","blind",5,"survey",NA,32672,812679,"0.0-5.0"
"433","396tw1vsba","6989c0c01b2e93d5d8f2e20a","concept-implementation-rating","4","concept-gemini-4-substratum","blind",5,"survey",NA,32672,812679,"0.0-5.0"
"434","396tw1vsba","6989c0c01b2e93d5d8f2e20a","creativity-rating","3","evaluation-chat-4-courier","blind",8,"survey",NA,488272,1414741,"0.0-8.0"
"435","396tw1vsba","6989c0c01b2e93d5d8f2e20a","creativity-free-response","it was such a great game and beautiful concept with an amazing implementation but i think i had played games with the same mechanics where you shouldnt be caught by the light. however the creative part that i havent faced before was the bar that filled whenever the player was out of the darkness ","evaluation-chat-4-courier","blind",8,"survey",NA,488272,1414741,"0.0-8.0"
"436","396tw1vsba","6989c0c01b2e93d5d8f2e20a","originality-rating","3","evaluation-chat-4-courier","blind",8,"survey",NA,488272,1414741,"0.0-8.0"
"437","396tw1vsba","6989c0c01b2e93d5d8f2e20a","originality-free-response","the part that i think was original and considered a new mechanic was the bar that fills up when the player gets out of the darkness but the light part where you should avoid being caught by the light wasnt original and was made in various other games ","evaluation-chat-4-courier","blind",8,"survey",NA,488272,1414741,"0.0-8.0"
"438","396tw1vsba","6989c0c01b2e93d5d8f2e20a","effectiveness-rating","5","evaluation-chat-4-courier","blind",8,"survey",NA,488272,1414741,"0.0-8.0"
"439","396tw1vsba","6989c0c01b2e93d5d8f2e20a","effectiveness-free-response","everything worked as intended and it was so challenging, tempting and joyful to play. i wasnt even bored and i wished there would be more than one round","evaluation-chat-4-courier","blind",8,"survey",NA,488272,1414741,"0.0-8.0"
"440","396tw1vsba","6989c0c01b2e93d5d8f2e20a","authenticity-rating","2","evaluation-chat-4-courier","blind",8,"survey",NA,488272,1414741,"0.0-8.0"
"441","396tw1vsba","6989c0c01b2e93d5d8f2e20a","attention-check","3","evaluation-chat-4-courier","blind",8,"survey",NA,488272,1414741,"0.0-8.0"
"442","396tw1vsba","6989c0c01b2e93d5d8f2e20a","intentionality-rating","4","evaluation-chat-4-courier","blind",8,"survey",NA,488272,1414741,"0.0-8.0"
"443","396tw1vsba","6989c0c01b2e93d5d8f2e20a","authenticity-intentionality-free-response","the core game idea wasnt much authentic as it was made alot in various types of games. the developers intentions of making a fun, challenging game were really on point and he did great effort in the concept but aesthatic and core concept wise, there wasnt much effort","evaluation-chat-4-courier","blind",8,"survey",NA,488272,1414741,"0.0-8.0"
"444","396tw1vsba","6989c0c01b2e93d5d8f2e20a","concept-creativity-rating","3","concept-chat-4-courier","blind",9,"survey",NA,37432,1452201,"0.0-9.0"
"445","396tw1vsba","6989c0c01b2e93d5d8f2e20a","concept-implementation-rating","4","concept-chat-4-courier","blind",9,"survey",NA,37432,1452201,"0.0-9.0"
"446","396tw1vsba","6989c0c01b2e93d5d8f2e20a","creativity-rating","5","evaluation-gemini-2-patch","blind",12,"survey",NA,340051,1820947,"0.0-12.0"
"447","396tw1vsba","6989c0c01b2e93d5d8f2e20a","creativity-free-response","that was a truly new concept and a mechanic to try where the player play as if hes the coder of the game and controlling the subjects of the game using a dropbox","evaluation-gemini-2-patch","blind",12,"survey",NA,340051,1820947,"0.0-12.0"
"448","396tw1vsba","6989c0c01b2e93d5d8f2e20a","originality-rating","5","evaluation-gemini-2-patch","blind",12,"survey",NA,340051,1820947,"0.0-12.0"
"449","396tw1vsba","6989c0c01b2e93d5d8f2e20a","originality-free-response","The game mechanic in my opinion was totally new i havent experienced a similar game where you get to control subjects of the game using a dropbox as if you're coding it","evaluation-gemini-2-patch","blind",12,"survey",NA,340051,1820947,"0.0-12.0"
"450","396tw1vsba","6989c0c01b2e93d5d8f2e20a","effectiveness-rating","4","evaluation-gemini-2-patch","blind",12,"survey",NA,340051,1820947,"0.0-12.0"
"451","396tw1vsba","6989c0c01b2e93d5d8f2e20a","effectiveness-free-response","i was enjoying the game and trying this new concept of controlling the subjects in the game but i was frustrated when the game just ended after i lost in the second round ","evaluation-gemini-2-patch","blind",12,"survey",NA,340051,1820947,"0.0-12.0"
"452","396tw1vsba","6989c0c01b2e93d5d8f2e20a","authenticity-rating","5","evaluation-gemini-2-patch","blind",12,"survey",NA,340051,1820947,"0.0-12.0"
"453","396tw1vsba","6989c0c01b2e93d5d8f2e20a","attention-check","3","evaluation-gemini-2-patch","blind",12,"survey",NA,340051,1820947,"0.0-12.0"
"454","396tw1vsba","6989c0c01b2e93d5d8f2e20a","intentionality-rating","5","evaluation-gemini-2-patch","blind",12,"survey",NA,340051,1820947,"0.0-12.0"
"455","396tw1vsba","6989c0c01b2e93d5d8f2e20a","authenticity-intentionality-free-response","the developer really did a great job and effort coming up with this new concept and mechanic of the game so in my opinion the idea of the game was really authentic and the intentions of the developer of making a fun and  creative game that depends on a truly new concept was really reflected through the game","evaluation-gemini-2-patch","blind",12,"survey",NA,340051,1820947,"0.0-12.0"
"456","396tw1vsba","6989c0c01b2e93d5d8f2e20a","concept-creativity-rating","5","concept-gemini-2-patch","blind",13,"survey",NA,31682,1852655,"0.0-13.0"
"457","396tw1vsba","6989c0c01b2e93d5d8f2e20a","concept-implementation-rating","5","concept-gemini-2-patch","blind",13,"survey",NA,31682,1852655,"0.0-13.0"
"458","396tw1vsba","6989c0c01b2e93d5d8f2e20a","baseline_originality_rating","4","baseline-questions-rating","blind",15,"survey",NA,22421,1878979,"0.0-15.0"
"459","396tw1vsba","6989c0c01b2e93d5d8f2e20a","baseline_effectiveness_rating","5","baseline-questions-rating","blind",15,"survey",NA,22421,1878979,"0.0-15.0"
"460","396tw1vsba","6989c0c01b2e93d5d8f2e20a","baseline_authenticity_rating","4","baseline-questions-rating","blind",15,"survey",NA,22421,1878979,"0.0-15.0"
"461","396tw1vsba","6989c0c01b2e93d5d8f2e20a","baseline_intentionality_rating","4","baseline-questions-rating","blind",15,"survey",NA,22421,1878979,"0.0-15.0"
"462","396tw1vsba","6989c0c01b2e93d5d8f2e20a","ai_blind_question","no actually because i think that the intentions that are reflected through the games were of the person who gave the AI the prompts to create the game, however being the AI who made the games explaines why they lack the creativity in the aesthatics but the core concepts of the games were mostly creative and fun ","ai-blind-question","blind",16,"survey",NA,163074,2042061,"0.0-16.0"
"463","3t8zrcv2yz","59f8868e05d1d60001f1464d","commitment-check","yes","commitment-check","aware",1,"survey",NA,7532,13323,"0.0-1.0"
"464","3t8zrcv2yz","59f8868e05d1d60001f1464d","creativity-rating","3","evaluation-chat-4-courier","aware",4,"survey",NA,107970,875546,"0.0-4.0"
"465","3t8zrcv2yz","59f8868e05d1d60001f1464d","creativity-free-response","It looked innovative but I didnt understand it","evaluation-chat-4-courier","aware",4,"survey",NA,107970,875546,"0.0-4.0"
"466","3t8zrcv2yz","59f8868e05d1d60001f1464d","originality-rating","4","evaluation-chat-4-courier","aware",4,"survey",NA,107970,875546,"0.0-4.0"
"467","3t8zrcv2yz","59f8868e05d1d60001f1464d","originality-free-response","It was exciting but I didnt understand it","evaluation-chat-4-courier","aware",4,"survey",NA,107970,875546,"0.0-4.0"
"468","3t8zrcv2yz","59f8868e05d1d60001f1464d","effectiveness-rating","3","evaluation-chat-4-courier","aware",4,"survey",NA,107970,875546,"0.0-4.0"
"469","3t8zrcv2yz","59f8868e05d1d60001f1464d","effectiveness-free-response","Very frustrating that I couldnt work out the rules","evaluation-chat-4-courier","aware",4,"survey",NA,107970,875546,"0.0-4.0"
"470","3t8zrcv2yz","59f8868e05d1d60001f1464d","authenticity-rating","4","evaluation-chat-4-courier","aware",4,"survey",NA,107970,875546,"0.0-4.0"
"471","3t8zrcv2yz","59f8868e05d1d60001f1464d","attention-check","3","evaluation-chat-4-courier","aware",4,"survey",NA,107970,875546,"0.0-4.0"
"472","3t8zrcv2yz","59f8868e05d1d60001f1464d","intentionality-rating","4","evaluation-chat-4-courier","aware",4,"survey",NA,107970,875546,"0.0-4.0"
"473","3t8zrcv2yz","59f8868e05d1d60001f1464d","authenticity-intentionality-free-response","Ive never seen anything like it before","evaluation-chat-4-courier","aware",4,"survey",NA,107970,875546,"0.0-4.0"
"474","3t8zrcv2yz","59f8868e05d1d60001f1464d","concept-creativity-rating","4","concept-chat-4-courier","aware",5,"survey",NA,27046,902615,"0.0-5.0"
"475","3t8zrcv2yz","59f8868e05d1d60001f1464d","concept-implementation-rating","4","concept-chat-4-courier","aware",5,"survey",NA,27046,902615,"0.0-5.0"
"476","3t8zrcv2yz","59f8868e05d1d60001f1464d","creativity-free-response","It was enjoyable and unusual","evaluation-gemini-1-static","aware",8,"survey",NA,87626,1080742,"0.0-8.0"
"477","3t8zrcv2yz","59f8868e05d1d60001f1464d","creativity-rating","4","evaluation-gemini-1-static","aware",8,"survey",NA,87626,1080742,"0.0-8.0"
"478","3t8zrcv2yz","59f8868e05d1d60001f1464d","originality-rating","4","evaluation-gemini-1-static","aware",8,"survey",NA,87626,1080742,"0.0-8.0"
"479","3t8zrcv2yz","59f8868e05d1d60001f1464d","originality-free-response","Again Ive never played anything like it","evaluation-gemini-1-static","aware",8,"survey",NA,87626,1080742,"0.0-8.0"
"480","3t8zrcv2yz","59f8868e05d1d60001f1464d","effectiveness-rating","4","evaluation-gemini-1-static","aware",8,"survey",NA,87626,1080742,"0.0-8.0"
"481","3t8zrcv2yz","59f8868e05d1d60001f1464d","effectiveness-free-response","I understood this one and felt proud when I succeeded","evaluation-gemini-1-static","aware",8,"survey",NA,87626,1080742,"0.0-8.0"
"482","3t8zrcv2yz","59f8868e05d1d60001f1464d","authenticity-rating","4","evaluation-gemini-1-static","aware",8,"survey",NA,87626,1080742,"0.0-8.0"
"483","3t8zrcv2yz","59f8868e05d1d60001f1464d","attention-check","3","evaluation-gemini-1-static","aware",8,"survey",NA,87626,1080742,"0.0-8.0"
"484","3t8zrcv2yz","59f8868e05d1d60001f1464d","intentionality-rating","4","evaluation-gemini-1-static","aware",8,"survey",NA,87626,1080742,"0.0-8.0"
"485","3t8zrcv2yz","59f8868e05d1d60001f1464d","authenticity-intentionality-free-response","Felt genuine as not played a game similar to it before","evaluation-gemini-1-static","aware",8,"survey",NA,87626,1080742,"0.0-8.0"
"486","3t8zrcv2yz","59f8868e05d1d60001f1464d","concept-creativity-rating","4","concept-gemini-1-static","aware",9,"survey",NA,13459,1094223,"0.0-9.0"
"487","3t8zrcv2yz","59f8868e05d1d60001f1464d","concept-implementation-rating","4","concept-gemini-1-static","aware",9,"survey",NA,13459,1094223,"0.0-9.0"
"488","3t8zrcv2yz","59f8868e05d1d60001f1464d","creativity-rating","2","evaluation-chat-3-orbit","aware",12,"survey",NA,53640,1292572,"0.0-12.0"
"489","3t8zrcv2yz","59f8868e05d1d60001f1464d","creativity-free-response","Didnt understand it. Didnt enjoy it.","evaluation-chat-3-orbit","aware",12,"survey",NA,53640,1292572,"0.0-12.0"
"490","3t8zrcv2yz","59f8868e05d1d60001f1464d","originality-rating","2","evaluation-chat-3-orbit","aware",12,"survey",NA,53640,1292572,"0.0-12.0"
"491","3t8zrcv2yz","59f8868e05d1d60001f1464d","originality-free-response","Just felt weird and boring","evaluation-chat-3-orbit","aware",12,"survey",NA,53640,1292572,"0.0-12.0"
"492","3t8zrcv2yz","59f8868e05d1d60001f1464d","effectiveness-rating","1","evaluation-chat-3-orbit","aware",12,"survey",NA,53640,1292572,"0.0-12.0"
"493","3t8zrcv2yz","59f8868e05d1d60001f1464d","effectiveness-free-response","Didnt engage me at all","evaluation-chat-3-orbit","aware",12,"survey",NA,53640,1292572,"0.0-12.0"
"494","3t8zrcv2yz","59f8868e05d1d60001f1464d","authenticity-rating","1","evaluation-chat-3-orbit","aware",12,"survey",NA,53640,1292572,"0.0-12.0"
"495","3t8zrcv2yz","59f8868e05d1d60001f1464d","attention-check","3","evaluation-chat-3-orbit","aware",12,"survey",NA,53640,1292572,"0.0-12.0"
"496","3t8zrcv2yz","59f8868e05d1d60001f1464d","intentionality-rating","1","evaluation-chat-3-orbit","aware",12,"survey",NA,53640,1292572,"0.0-12.0"
"497","3t8zrcv2yz","59f8868e05d1d60001f1464d","authenticity-intentionality-free-response","This is a poor effort.  First two games were good.","evaluation-chat-3-orbit","aware",12,"survey",NA,53640,1292572,"0.0-12.0"
"498","3t8zrcv2yz","59f8868e05d1d60001f1464d","concept-creativity-rating","1","concept-chat-3-orbit","aware",13,"survey",NA,5721,1298314,"0.0-13.0"
"499","3t8zrcv2yz","59f8868e05d1d60001f1464d","concept-implementation-rating","1","concept-chat-3-orbit","aware",13,"survey",NA,5721,1298314,"0.0-13.0"
"500","3t8zrcv2yz","59f8868e05d1d60001f1464d","baseline_originality_rating","4","baseline-questions-rating","aware",15,"survey",NA,10134,1310203,"0.0-15.0"
"501","3t8zrcv2yz","59f8868e05d1d60001f1464d","baseline_effectiveness_rating","4","baseline-questions-rating","aware",15,"survey",NA,10134,1310203,"0.0-15.0"
"502","3t8zrcv2yz","59f8868e05d1d60001f1464d","baseline_authenticity_rating","4","baseline-questions-rating","aware",15,"survey",NA,10134,1310203,"0.0-15.0"
"503","3t8zrcv2yz","59f8868e05d1d60001f1464d","baseline_intentionality_rating","4","baseline-questions-rating","aware",15,"survey",NA,10134,1310203,"0.0-15.0"
"504","3t8zrcv2yz","59f8868e05d1d60001f1464d","ai_aware_question","Not at all.  I judged them for what they were. Entertaining video games.  Two werent and one was.","ai-aware-question","aware",16,"survey",NA,33630,1343844,"0.0-16.0"
"505","3u44bzfqwa","670ff2e18c2f93beac6a6a72","commitment-check","yes","commitment-check","aware",1,"survey",NA,8949,19825,"0.0-1.0"
"506","3u44bzfqwa","670ff2e18c2f93beac6a6a72","creativity-rating","2","evaluation-gemini-4-substratum","aware",4,"survey",NA,284971,482581,"0.0-4.0"
"507","3u44bzfqwa","670ff2e18c2f93beac6a6a72","creativity-free-response","It was uncreative because it only required one movement and it had very simple controls. ","evaluation-gemini-4-substratum","aware",4,"survey",NA,284971,482581,"0.0-4.0"
"508","3u44bzfqwa","670ff2e18c2f93beac6a6a72","originality-rating","1","evaluation-gemini-4-substratum","aware",4,"survey",NA,284971,482581,"0.0-4.0"
"509","3u44bzfqwa","670ff2e18c2f93beac6a6a72","originality-free-response","I would say it is very unoriginal. The dragging the block so it can move is used in a lot of simple app games. ","evaluation-gemini-4-substratum","aware",4,"survey",NA,284971,482581,"0.0-4.0"
"510","3u44bzfqwa","670ff2e18c2f93beac6a6a72","effectiveness-rating","1","evaluation-gemini-4-substratum","aware",4,"survey",NA,284971,482581,"0.0-4.0"
"511","3u44bzfqwa","670ff2e18c2f93beac6a6a72","effectiveness-free-response","It was very hard to control and keep it a steady pace when I was doing the middle part. That part was hard and frustrating because how sensitive moving the panel is. ","evaluation-gemini-4-substratum","aware",4,"survey",NA,284971,482581,"0.0-4.0"
"512","3u44bzfqwa","670ff2e18c2f93beac6a6a72","authenticity-rating","1","evaluation-gemini-4-substratum","aware",4,"survey",NA,284971,482581,"0.0-4.0"
"513","3u44bzfqwa","670ff2e18c2f93beac6a6a72","attention-check","3","evaluation-gemini-4-substratum","aware",4,"survey",NA,284971,482581,"0.0-4.0"
"514","3u44bzfqwa","670ff2e18c2f93beac6a6a72","intentionality-rating","3","evaluation-gemini-4-substratum","aware",4,"survey",NA,284971,482581,"0.0-4.0"
"515","3u44bzfqwa","670ff2e18c2f93beac6a6a72","authenticity-intentionality-free-response","I would say it is pretty good for this setting. I mean it was used for science so that makes it a little better. ","evaluation-gemini-4-substratum","aware",4,"survey",NA,284971,482581,"0.0-4.0"
"516","3u44bzfqwa","670ff2e18c2f93beac6a6a72","concept-creativity-rating","5","concept-gemini-4-substratum","aware",5,"survey",NA,30427,513037,"0.0-5.0"
"517","3u44bzfqwa","670ff2e18c2f93beac6a6a72","concept-implementation-rating","4","concept-gemini-4-substratum","aware",5,"survey",NA,30427,513037,"0.0-5.0"
"518","3u44bzfqwa","670ff2e18c2f93beac6a6a72","creativity-rating","1","evaluation-chat-4-courier","aware",8,"survey",NA,158270,1540310,"0.0-8.0"
"519","3u44bzfqwa","670ff2e18c2f93beac6a6a72","creativity-free-response","It was terrible, horrible controls and it just felt thrown together. ","evaluation-chat-4-courier","aware",8,"survey",NA,158270,1540310,"0.0-8.0"
"520","3u44bzfqwa","670ff2e18c2f93beac6a6a72","originality-rating","1","evaluation-chat-4-courier","aware",8,"survey",NA,158270,1540310,"0.0-8.0"
